time_stamp, gyro_x, gyro_y, gyro_z, accel_x, accel_y, accel_z, quat_x, quat_y, quat_z, quat_w
0,0,0,0,0,0,0
83,-3.75,-4.87,-5.44,-5.18,1.35,8.23
91,-3.75,-4.59,-5.44,-3.73,1.19,8.15
101,-3.81,-4.46,-5.25,-3.69,1.22,8.41
109,-4.00,-4.35,-5.62,-3.69,1.22,8.41
119,-4.38,-4.25,-5.88,-5.27,1.19,8.61
131,-12.38,-4.21,-6.00,-5.26,1.32,8.48
150,-2.81,-4.24,-4.81,-3.75,1.43,8.53
160,-10.12,-4.21,-5.31,-3.83,1.30,8.60
169,-1.62,-3.87,-5.38,-3.83,1.30,8.60
176,-0.94,-3.24,-5.12,-3.82,1.08,8.52
186,-0.25,-2.45,-5.12,-5.32,1.02,8.37
192,-7.19,-1.63,-4.50,-5.76,0.89,8.22
201,-6.25,-0.78,-3.56,-3.82,1.16,8.32
210,-5.81,0.19,-3.75,-3.82,1.16,8.32
219,-4.44,1.20,-3.12,-3.84,0.95,8.55
230,-4.50,2.07,-3.69,-5.50,0.73,8.21
243,-3.81,2.93,-3.31,-3.64,0.86,8.36
252,-3.44,3.87,-3.62,-3.80,0.91,8.34
265,-3.00,4.80,-2.62,-3.80,0.91,8.34
275,-2.81,5.60,-2.88,-5.29,1.04,8.36
282,-2.62,6.20,-2.81,-3.77,1.04,8.35
291,-2.44,6.53,-3.12,-5.17,1.11,8.15
301,-2.69,6.43,-3.75,-5.71,0.86,8.10
332,-2.69,5.92,-3.81,-5.71,0.86,8.10
344,-3.25,5.26,-4.31,-5.33,0.96,7.96
354,-2.88,4.68,-3.94,-5.39,1.13,8.40
362,-2.81,4.20,-3.69,-5.54,0.77,8.28
373,-2.81,3.79,-3.56,-5.33,1.05,8.28
380,-2.88,3.42,-3.50,-5.33,1.05,8.28
386,-2.25,3.12,-3.06,-5.48,0.64,8.23
396,-2.25,2.93,-2.94,-5.28,0.90,8.34
404,-1.75,2.96,-2.50,-5.35,0.77,8.29
413,-1.06,3.15,-0.06,-5.41,0.79,8.35
425,-0.75,3.40,-1.44,-5.41,0.79,8.35
434,-0.25,3.66,-0.94,-5.43,0.92,8.30
440,8.19,4.02,-0.56,-5.28,0.76,8.20
453,8.38,4.47,-0.38,-5.21,1.16,8.32
460,8.62,4.87,-0.50,-5.30,1.01,8.21
467,8.31,5.18,-0.94,-5.30,1.01,8.21
501,8.25,5.41,-1.62,-5.33,0.99,8.28
511,8.19,5.60,-1.62,-5.23,1.03,8.24
519,0.19,5.69,-1.94,-5.34,0.92,8.16
526,-0.12,5.69,-2.69,-5.40,0.92,8.14
532,-0.44,5.73,-3.06,-5.40,0.92,8.14
539,-0.81,5.76,-3.69,-3.83,1.19,8.11
573,-1.06,5.80,-4.31,-5.24,1.11,8.26
582,-1.31,5.92,-4.81,-5.62,0.88,8.13
588,-1.38,6.10,-4.88,-5.48,0.84,8.09
662,-2.69,6.34,-5.62,-5.48,0.84,8.09
668,-2.81,6.56,-5.56,-5.61,0.98,8.12
680,-3.44,6.69,-6.38,-5.14,1.26,8.33
687,-3.94,6.79,-7.19,-5.37,0.93,8.14
694,-5.12,7.02,-9.19,-5.67,0.68,8.04
702,-5.94,7.58,-11.50,-5.67,0.68,8.04
716,-6.50,8.75,-15.06,-5.64,1.59,7.51
732,-6.19,10.90,-17.12,-3.74,0.49,8.04
744,-6.44,14.38,-19.38,-3.61,0.76,8.43
755,-5.62,19.12,-22.38,-5.51,1.48,8.74
770,-4.69,24.38,-22.56,-3.17,0.84,8.21
776,-5.00,29.77,-25.50,-3.52,0.65,7.77
786,-3.38,36.91,-31.69,-4.72,0.58,8.31
793,-3.06,47.66,-35.44,-5.72,0.70,8.44
800,-2.94,61.22,-36.62,-5.72,0.70,8.44
807,-4.25,76.10,-36.06,-5.45,0.91,8.48
814,-4.88,91.41,-33.44,-5.88,1.07,8.88
820,-7.56,105.04,-29.38,-6.34,0.52,8.21
829,-2.62,115.35,-27.00,-5.94,0.71,8.15
839,-14.88,123.82,-27.12,-6.13,1.00,8.12
845,-18.94,132.88,-28.06,-6.27,1.25,8.07
863,-22.06,143.70,-30.81,-6.15,1.03,7.85
871,-22.31,156.32,-36.12,-5.39,0.78,7.61
877,-22.69,170.12,-44.12,-5.65,0.71,8.53
884,-21.88,184.65,-55.12,-6.93,0.71,8.53
890,-17.31,200.34,-66.75,-8.39,0.49,9.56
896,-6.12,218.06,-78.25,-8.07,0.47,9.09
903,14.00,237.92,-89.62,-7.90,1.08,9.34
910,19.06,258.40,-100.94,-8.02,1.36,9.79
917,32.56,277.05,-111.75,-11.38,0.96,10.33
925,43.94,292.39,-124.06,-10.99,0.51,10.43
931,57.81,303.53,-133.44,-11.19,1.13,9.76
939,68.19,308.04,-143.06,-10.86,1.95,8.21
946,62.00,303.11,-155.56,-12.52,1.56,7.11
955,56.81,288.28,-164.44,-11.78,1.66,5.86
967,57.25,266.15,-164.62,-8.59,2.74,8.40
975,57.81,239.53,-165.62,-8.13,5.34,17.01
982,62.50,206.82,-157.81,-11.47,8.20,18.11
990,59.38,164.08,-145.06,-13.61,9.64,17.52
998,46.50,111.39,-115.12,-6.09,10.46,13.46
1003,42.44,53.17,-80.06,-2.62,7.72,9.55
1008,25.56,-1.97,-52.44,-2.66,6.56,8.37
1013,12.44,-44.38,-25.31,-1.07,5.75,7.85
1019,11.69,-70.44,-1.88,-1.22,4.98,7.88
1024,13.00,-83.66,16.81,-3.32,4.10,8.63
1031,14.50,-90.92,31.56,-4.12,3.50,9.35
1037,16.19,-98.40,42.50,-5.11,2.84,10.07
1042,21.62,-109.71,51.75,-6.12,2.25,10.67
1047,29.06,-126.47,58.62,-7.00,1.61,10.13
1053,36.38,-148.96,62.44,-7.09,1.51,9.29
1066,41.50,-175.69,63.56,-6.99,1.56,8.32
1071,44.56,-203.21,61.88,-6.83,1.74,7.42
1077,46.06,-227.48,59.69,-7.33,2.11,6.86
1089,49.12,-245.84,60.50,-7.76,2.31,6.81
1098,55.62,-258.04,65.94,-7.99,2.79,6.69
1107,62.75,-265.44,75.94,-8.04,3.45,6.29
1117,66.62,-269.32,88.12,-7.25,5.01,5.08
1127,62.88,-238.89,-0.06,-7.18,4.80,5.12
1139,58.75,-178.18,115.56,-7.95,4.38,5.72
1148,58.50,-161.12,132.12,-8.23,3.56,6.42
1159,59.81,-187.56,150.81,-8.47,2.95,7.48
1172,62.75,-205.93,166.44,-9.37,1.94,9.68
1178,72.00,-203.68,179.50,-12.62,1.25,12.32
1190,81.75,-188.49,189.62,-12.48,1.38,12.52
1199,78.44,-175.46,188.56,-11.83,0.75,12.18
1218,69.31,-172.57,177.81,-11.66,0.10,11.99
1225,66.19,-176.41,163.75,-11.88,0.18,11.95
1235,70.19,-180.04,151.75,-14.50,1.86,14.13
1242,80.50,-179.40,145.31,-17.23,2.80,15.26
1248,96.81,-174.90,149.06,-19.61,3.96,16.50
1257,109.88,-170.85,160.25,-21.60,5.00,16.54
1271,113.25,68.26,174.31,-21.26,3.25,12.88
1277,94.88,498.14,183.06,-20.30,-1.36,-322.63
1287,88.00,534.30,196.69,-17.20,-5.79,7.01
1297,102.88,193.29,211.38,-15.21,-4.31,4.29
1306,113.19,-73.14,-0.06,-16.46,-8.24,1.39
1316,101.75,-158.71,194.31,-17.74,-9.31,-0.47
1326,94.81,-155.98,178.50,-18.45,-10.53,-3.57
1337,87.19,-125.77,-0.06,-18.29,-12.62,-6.72
1347,83.19,-79.17,126.00,-17.57,-14.54,-10.93
1357,84.50,-44.86,99.19,-16.26,-12.65,-11.40
1386,76.56,-23.28,72.31,-15.63,-10.10,-9.97
1392,52.06,2.59,41.44,-15.99,-8.10,-7.00
1408,21.94,35.60,12.25,-12.01,4.11,-1.90
1414,-9.94,70.02,-10.00,-13.24,0.76,5.25
1419,-78.81,98.28,-26.25,1.92,1.71,16.48
1425,-74.12,113.22,-31.88,11.86,20.85,24.69
1431,-44.19,110.96,-42.56,3.33,9.45,16.09
1440,-82.88,98.35,-92.75,-0.52,-3.18,4.39
1454,-107.62,90.35,-142.62,-3.01,-6.74,0.82
1461,-110.12,95.53,-139.31,-7.64,-4.97,8.72
1473,-99.50,110.72,-118.25,-7.71,-0.06,12.87
1479,-75.12,128.65,-101.69,-8.89,0.17,12.35
1487,-71.75,143.34,-100.00,-7.39,-0.33,9.78
1499,-58.81,148.92,-94.06,-8.98,3.36,11.84
1506,-45.62,144.73,-79.94,-10.73,4.41,12.19
1517,-44.00,138.26,-69.75,-12.71,6.48,12.32
1526,-61.25,132.71,-62.56,-14.10,6.93,11.66
1539,-88.62,123.76,-51.88,-8.50,0.02,11.26
1547,-103.81,104.46,-43.44,-4.18,0.37,11.92
1557,-97.62,72.24,-40.06,-6.71,0.10,10.49
1572,-87.06,40.00,-36.62,-7.87,0.96,9.96
1580,-74.06,21.33,-30.69,-6.07,1.19,9.04
1588,-59.50,13.46,-23.12,-6.09,1.64,8.84
1598,-46.31,8.85,-18.50,-5.94,1.73,8.56
1606,-35.75,4.93,-15.75,-5.59,1.95,8.82
1620,-22.19,1.18,-13.25,-5.42,1.43,8.43
1627,-22.19,-2.27,-13.25,-5.33,1.31,8.34
1636,-17.50,-4.70,-0.06,-5.03,1.47,8.35
1646,-15.31,-6.06,-9.75,-5.02,1.49,8.49
1656,-15.38,-6.80,-9.44,-4.99,1.38,8.49
1670,-15.44,-7.15,-9.12,-4.89,1.43,8.39
1677,-15.44,-7.29,-9.12,-5.10,1.25,8.62
1686,-15.12,-7.22,-8.75,-5.13,1.18,8.62
1699,-13.75,-6.79,-7.38,-4.94,1.08,8.75
1707,-12.50,-6.07,-6.56,-5.29,1.18,8.68
1720,-2.62,-5.18,-6.00,-3.75,1.19,8.42
1729,-2.62,-4.25,-6.00,-5.36,1.20,8.54
1739,-1.88,-3.45,-5.88,-3.70,1.19,8.41
1751,-8.00,-2.61,-5.06,-5.01,1.00,8.66
1760,-8.00,-1.68,-5.06,-3.72,1.18,8.64
1771,-5.38,-0.73,-3.81,-3.53,1.32,8.28
1780,-5.38,0.30,-3.81,-5.29,0.75,8.68
1789,-4.56,1.34,-2.94,-3.81,1.04,8.47
1800,-2.88,2.43,-2.19,-5.50,0.89,8.56
1809,-2.31,3.59,-1.50,-5.45,0.84,8.39
1819,-1.69,4.58,-1.25,-5.39,1.03,8.29
1829,-1.69,5.22,-1.25,-3.77,0.95,8.24
1839,-1.12,5.58,-1.00,-5.17,0.88,8.31
1849,-0.88,5.82,-1.62,-5.48,1.13,8.23
1859,-1.06,5.89,-1.56,-5.21,1.08,8.21
1869,-1.38,5.64,-1.94,-5.47,0.96,8.27
1880,-1.56,5.13,-2.19,-5.32,1.19,8.23
1889,-1.38,4.61,-2.12,-5.29,1.00,8.15
1899,-1.12,4.32,-1.81,-5.57,0.89,8.25
1909,-0.75,4.22,-1.56,-5.38,1.05,8.27
1919,-0.62,4.18,-1.38,-5.48,1.04,8.31
1931,-0.81,4.29,-1.69,-5.56,0.83,8.30
1939,-0.56,4.55,-1.25,-3.83,0.86,8.20
1950,-0.19,4.82,-0.81,-5.29,0.86,8.32
1959,8.06,5.11,-0.62,-5.35,0.97,8.18
1970,8.56,5.43,0.50,-5.37,0.95,8.40
1979,8.56,5.71,0.56,-3.81,0.85,8.23
1990,8.31,5.92,0.19,-5.55,0.74,8.14
1999,8.88,6.07,0.25,-5.28,1.07,8.34
2009,8.19,6.22,0.06,-5.34,0.96,8.01
2019,8.06,6.38,-0.75,-5.47,0.77,8.16
2029,-0.06,6.48,-1.12,-5.45,0.99,8.20
2039,-0.44,6.44,-1.50,-5.34,1.09,8.12
2050,-0.94,6.35,-2.69,-5.60,0.90,8.12
2062,-1.12,6.30,-3.31,-5.64,0.85,8.07
2069,-0.75,6.25,-3.88,-5.26,0.94,8.14
2080,-1.12,6.23,-4.38,-5.63,0.91,8.32
2089,-1.31,6.23,-4.50,-5.16,1.21,8.13
2099,-2.12,6.13,-5.00,-5.30,1.25,8.25
2110,-3.44,5.91,-6.19,-5.79,1.21,7.93
2119,-4.75,5.56,-7.00,-3.67,1.32,8.34
2129,-6.38,5.27,-9.69,-5.69,1.23,8.22
2139,-7.25,5.45,-10.69,-5.26,1.46,8.18
2149,-8.00,6.27,-12.06,-5.48,1.05,8.26
2162,-0.62,7.78,-14.19,-5.46,0.98,8.18
2169,-0.88,10.09,-15.75,-3.82,1.26,7.42
2183,-1.62,13.59,-19.12,-5.19,0.68,7.77
2189,-1.00,18.48,-21.81,-3.79,0.19,8.25
2199,-7.50,23.83,-21.19,-6.12,2.06,9.10
2209,-0.50,28.74,-27.00,-3.34,0.91,8.14
2220,-9.19,34.36,-33.19,-3.20,1.14,7.60
2229,-0.44,42.73,-37.25,-3.10,1.33,8.19
2239,-0.69,54.03,-37.69,-2.69,1.48,7.97
2250,-1.69,67.81,-37.56,-3.63,0.86,8.65
2259,-2.00,83.96,-36.44,-6.22,0.77,8.77
2270,-3.25,101.00,-33.44,-5.34,1.09,8.62
2288,-6.69,116.82,-32.06,-5.43,0.66,8.31
2295,-18.06,130.70,-33.00,-6.05,0.75,8.37
2302,-22.75,142.27,-35.38,-6.17,0.53,7.86
2309,-18.00,151.83,-39.38,-5.23,0.90,8.33
2319,-18.56,161.53,-45.62,-5.33,0.35,7.76
2329,-23.25,173.04,-53.69,-5.34,0.45,8.41
2339,-19.75,186.68,-63.69,-5.71,0.54,7.88
2349,-5.88,202.67,-74.44,-7.85,0.90,9.76
2359,-7.31,220.82,-86.25,-8.90,1.10,9.32
2375,9.62,239.83,-98.38,-8.78,1.40,10.11
2383,13.50,257.89,-109.38,-8.90,1.76,10.27
2397,27.12,273.31,-119.12,-10.31,0.42,11.35
2405,46.38,284.27,-125.56,-12.86,0.32,11.44
2412,63.19,288.20,-133.44,-11.02,0.71,11.13
2419,72.75,282.88,-144.75,-10.96,1.69,10.05
2429,57.94,267.52,-151.38,-13.41,0.66,10.71
2439,79.12,241.29,-147.69,-10.54,2.38,13.35
2449,78.94,200.97,-141.00,-10.64,4.98,20.24
2460,75.12,144.65,-132.31,-5.45,5.67,17.80
2470,57.00,81.39,-128.00,-3.72,10.45,12.86
2479,29.00,26.21,-111.25,-0.76,10.27,10.36
2495,-1.38,-13.91,-92.25,-3.26,8.40,10.24
2502,8.62,-39.75,-64.19,-1.13,6.25,8.47
2510,11.69,-55.07,-34.50,-1.26,5.87,8.41
2519,31.81,-63.91,-7.62,-0.52,5.87,8.59
2529,29.31,-70.08,14.56,-1.05,6.01,8.94
2539,30.69,-77.48,32.56,-3.28,5.19,10.49
2549,31.62,-89.02,47.56,-3.49,4.06,10.77
2559,45.00,-106.66,60.50,-5.38,2.97,10.89
2570,45.88,-130.13,69.75,-5.63,2.25,10.47
2579,60.50,-156.44,73.44,-5.62,1.74,8.88
2596,63.75,-181.79,73.62,-5.68,1.60,8.22
2603,56.31,-203.00,70.88,-5.53,1.24,7.45
2611,58.19,-218.21,67.44,-5.34,0.71,6.97
2619,74.12,-226.71,65.38,-5.25,0.82,7.28
2630,74.19,-229.02,66.06,-6.22,1.83,7.73
2641,76.69,-227.45,70.88,-7.92,3.10,7.81
2651,74.06,-224.69,81.56,-8.13,3.84,7.72
2660,76.94,-221.28,96.56,-7.89,3.94,7.10
2669,73.81,-215.53,112.00,-8.07,3.29,7.50
2679,79.69,-205.79,126.81,-7.92,2.36,8.94
2697,94.81,-192.63,142.75,-10.69,1.66,10.51
2706,93.94,-180.23,156.81,-10.98,2.63,11.43
2714,92.12,-173.63,160.06,-10.57,2.72,11.14
2722,78.00,-173.08,156.94,-10.31,1.88,11.15
2733,72.88,-174.40,153.94,-10.60,0.95,11.68
2740,72.31,-174.71,154.38,-13.11,0.75,14.25
2750,90.06,-175.14,157.50,-13.73,1.43,14.81
2759,89.81,-178.53,161.44,-15.88,1.77,15.08
2769,93.38,-185.99,164.75,-15.57,2.07,13.65
2779,95.56,-195.79,166.69,-13.98,1.87,12.72
2789,107.50,-204.15,167.06,-13.81,1.67,11.79
2801,104.38,-207.52,167.75,-13.74,1.56,10.85
2809,108.19,-204.54,168.69,-13.46,0.31,8.37
2820,111.62,-196.01,170.75,-13.74,-3.27,6.05
2829,125.75,-182.85,173.06,-11.22,-7.08,4.39
2840,154.81,-163.97,168.88,-11.52,-7.38,2.82
2850,153.50,-138.15,153.19,-14.25,-7.25,-0.24
2860,156.62,-107.80,130.19,-14.08,-8.37,-2.40
2871,141.31,-77.76,105.75,-14.06,-9.77,-4.56
2879,143.44,-50.56,84.69,-13.96,-10.30,-6.41
2889,120.12,-25.12,64.00,-13.59,-7.66,-7.92
2899,88.94,0.44,38.56,-12.91,-6.14,-6.88
2909,61.19,26.48,11.31,-13.87,-4.95,-4.65
2919,26.31,51.38,-11.00,-13.81,-4.09,-2.22
2930,11.25,72.51,-26.25,-12.98,-1.77,1.40
2940,-0.94,88.02,-35.56,-8.19,9.53,2.17
2950,-68.56,98.80,-41.19,-10.29,12.46,5.29
2960,-117.06,103.76,-31.75,4.40,9.66,16.41
2972,-97.50,98.47,-21.50,9.00,19.65,20.95
2981,-128.19,86.28,-62.75,9.12,11.63,11.24
2989,-166.56,80.65,-113.31,-1.24,-2.83,4.92
3000,-176.19,89.04,-114.69,2.05,-10.57,0.69
3009,-144.25,108.01,-96.94,-8.74,-8.82,13.07
3019,-112.56,130.94,-89.31,-8.34,-7.02,16.83
3031,-98.44,146.19,-103.19,-8.37,-8.25,14.80
3040,-67.25,147.01,-105.94,-6.07,-4.07,12.61
3051,-39.94,140.86,-88.56,-7.80,7.61,10.32
3061,-39.75,136.60,-65.31,-10.57,8.48,10.42
3069,-64.88,135.77,-51.69,-11.46,6.51,10.86
3080,-82.69,135.19,-46.62,-13.95,2.61,13.14
3090,-98.88,124.75,-41.25,-7.96,-1.26,11.19
3106,-81.31,94.40,-40.12,-5.87,1.50,12.25
3113,-83.19,53.14,-33.56,-3.46,1.19,9.26
3120,-64.56,21.36,-29.25,-5.52,1.78,8.76
3129,-54.44,6.93,-24.75,-6.08,1.84,8.97
3139,-51.75,2.80,-20.25,-5.61,1.23,8.85
3150,-34.00,1.07,-18.12,-5.61,1.44,8.58
3160,-34.75,-0.87,-16.56,-5.71,2.12,8.35
3169,-22.12,-3.31,-14.38,-3.84,2.50,8.50
3179,-19.44,-5.47,-12.62,-3.51,1.97,8.29
3189,-17.62,-6.47,-11.56,-5.27,1.66,8.53
3200,-22.06,-6.53,-10.69,-5.41,1.33,8.59
3215,-19.06,-6.66,-9.50,-5.23,1.21,8.70
3223,-17.88,-7.02,-9.06,-5.41,0.97,8.89
3229,-7.31,-7.08,-7.56,-3.61,1.03,8.84
3240,-4.81,-6.61,-5.81,-5.17,0.74,8.56
3249,-2.12,-5.62,-4.50,-5.18,0.86,8.74
3260,-0.12,-4.31,-3.44,-3.68,1.05,8.56
3269,-6.50,-3.01,-2.94,-5.23,1.08,8.57
3283,-5.38,-1.85,-2.56,-5.52,1.16,8.58
3290,-3.75,-0.96,-1.19,-3.11,1.48,8.43
3302,-3.19,-0.11,-1.00,-5.30,1.01,8.66
3313,-2.56,1.03,-0.69,-5.41,1.40,8.35
3320,-2.12,2.31,-0.50,-5.29,1.23,8.19
3329,-2.06,3.43,-0.69,-5.53,1.00,8.31
3340,-1.75,4.33,-0.81,-5.26,1.36,8.18
3350,-1.50,4.94,-1.00,-5.36,0.99,8.06
3360,-1.31,5.40,-1.44,-5.40,1.16,8.13
3372,-1.31,5.80,-1.44,-3.82,1.23,8.23
3386,-1.62,6.01,-1.69,-5.32,1.18,8.17
3395,-1.75,5.87,-2.12,-5.50,1.10,8.26
3403,-2.19,5.34,-2.38,-5.30,1.16,8.06
3415,-2.25,4.60,-2.50,-5.43,1.03,8.18
3423,-2.44,3.98,-2.38,-5.27,1.21,8.14
3429,-2.19,3.60,-2.31,-5.24,0.93,8.04
3463,-2.56,3.39,-2.81,-5.72,0.92,8.14
3470,-2.38,3.33,-2.56,-5.42,0.88,8.14
3477,-2.44,3.26,-2.06,-5.36,1.10,8.15
3485,-2.44,3.12,-2.06,-5.63,0.98,8.11
3493,-2.31,3.10,-1.69,-5.46,1.14,8.11
3501,-1.88,3.39,-1.00,-5.34,1.02,8.18
3508,-1.75,3.89,-0.69,-5.41,1.13,8.15
3518,-1.88,4.39,-0.94,-5.31,1.08,8.17
3525,-1.50,4.76,-0.31,-5.21,1.03,8.39
3533,-1.94,4.93,-0.81,-5.51,0.82,8.19
3540,-1.56,4.96,-1.00,-5.42,1.03,8.14
3551,-1.56,4.95,-0.88,-5.37,1.02,8.12
3560,-1.69,4.88,-1.38,-5.35,0.89,8.17
3569,-1.69,4.75,-1.38,-5.37,0.77,8.33
3579,-1.62,4.59,-1.44,-5.13,1.05,8.23
3618,-1.75,4.39,-1.50,-5.20,0.84,8.14
3638,-2.00,4.20,-2.56,-5.69,1.13,8.31
3651,-2.25,4.17,-3.00,-5.19,1.44,8.08
3657,-2.25,4.17,-3.00,-5.65,1.21,8.18
3666,-3.06,4.16,-4.06,-5.42,1.22,8.15
3673,-4.38,4.23,-5.81,-5.45,1.23,8.25
3680,-4.88,4.40,-6.56,-5.44,1.09,8.12
3687,-5.19,4.78,-7.00,-5.21,0.71,8.37
3695,-5.19,5.32,-7.00,-5.73,1.04,8.02
3704,-5.81,5.94,-8.38,-5.47,1.88,7.33
3711,-6.44,7.34,-10.12,-5.15,0.17,8.05
3722,-5.88,10.02,-11.00,-5.15,1.83,9.04
3729,-5.44,12.96,-11.06,-5.98,2.29,9.13
3735,-5.44,14.98,-11.06,-5.19,0.92,8.31
3743,-6.69,16.04,-15.38,-3.66,0.79,7.53
3750,-6.31,18.28,-24.06,-3.72,1.04,7.96
3757,-5.38,24.13,-28.00,-3.03,1.73,7.96
3764,-5.88,33.04,-29.94,-3.60,1.36,8.18
3774,-5.88,42.32,-29.94,-5.16,1.35,8.42
3781,-6.75,50.18,-30.81,-3.43,1.15,8.80
3823,-7.50,60.30,-31.94,-3.50,-0.09,8.97
3839,-7.50,76.70,-33.62,-3.25,0.67,8.12
3847,-0.25,97.58,-33.56,-5.19,0.95,8.69
3855,-0.25,117.60,-33.56,-5.73,1.10,8.21
3863,-2.81,133.24,-33.94,-6.19,0.69,8.81
3871,-18.06,147.82,-34.44,-5.61,1.09,8.41
3877,-23.44,164.89,-37.12,-5.69,1.28,8.21
3884,-18.12,183.74,-42.94,-5.14,1.17,8.78
3891,-18.12,201.34,-42.94,-5.60,1.40,9.90
3900,-22.50,215.48,-51.31,-6.33,1.46,11.27
3906,-20.31,232.59,-72.75,-7.83,1.22,11.64
3920,-22.50,258.32,-84.00,-10.48,1.21,11.63
3930,-4.81,286.12,-94.25,-11.13,0.81,12.11
3938,-4.81,306.73,-94.25,-11.13,0.81,12.11
3945,11.25,316.97,-103.00,-13.63,2.29,10.96
3953,25.62,313.86,-120.56,-13.84,0.69,12.13
3960,46.12,290.98,-118.75,-13.34,0.98,14.37
3968,43.38,244.80,-118.12,-8.39,2.22,19.75
3975,43.38,186.90,-118.12,-3.75,3.89,14.38
3982,42.62,132.76,-123.75,-5.85,7.83,12.39
3991,12.12,77.42,-143.56,-1.10,8.88,10.75
4003,-7.12,19.84,-127.81,-1.23,8.40,8.68
4010,-2.31,-24.26,-100.12,-0.06,7.67,8.52
4023,-2.31,-47.64,-100.12,-1.34,7.67,8.52
4031,-1.75,-56.18,-65.31,-1.52,7.65,8.20
4039,9.06,-60.13,-30.38,-1.54,6.99,8.31
4049,17.81,-65.95,-0.50,-3.27,5.18,9.65
4059,26.00,-74.93,22.94,-4.08,4.21,10.21
4067,33.94,-87.46,39.12,-4.08,4.21,10.21
4077,43.56,-104.35,49.75,-4.70,3.39,10.43
4089,52.88,-125.62,-1993.31,-5.13,2.08,8.93
4099,61.75,-149.76,56.00,-4.94,1.99,8.21
4109,69.19,-174.09,56.19,-4.81,1.74,7.60
4122,74.50,-195.53,54.81,-4.81,1.74,7.60
4132,80.31,-211.68,53.75,-4.71,1.47,7.15
4139,88.38,-221.46,53.69,-5.68,2.06,7.34
4149,96.69,-225.11,56.81,-5.98,2.55,7.46
4159,102.12,-223.85,62.06,-6.73,2.60,8.27
4167,103.94,-219.10,70.12,-6.73,2.60,8.27
4177,107.56,-211.63,80.06,-7.69,2.13,8.33
4188,118.00,-202.03,93.06,-10.67,1.54,12.54
4199,128.44,-192.26,106.94,-11.38,1.84,12.54
4211,128.31,-185.74,115.81,-11.29,1.29,12.20
4217,117.94,-184.41,116.88,-11.29,1.29,12.20
4229,106.38,-186.54,112.94,-11.40,0.75,12.09
4239,101.00,-188.32,109.69,-12.63,2.14,12.47
4249,99.75,-187.11,109.62,-13.98,2.79,13.29
4259,100.06,-182.54,113.06,-15.86,3.37,-0.01
4267,105.38,-175.98,124.12,-15.86,3.37,14.08
4277,114.00,-170.08,143.06,-17.89,3.99,14.69
4289,121.38,-168.17,165.50,-19.23,4.99,10.82
4299,108.75,-171.84,182.19,-18.62,2.21,9.12
4310,90.56,-179.01,195.62,-17.03,-0.74,6.56
4317,88.12,-185.37,211.94,-17.03,-0.74,6.56
4327,98.38,-185.56,225.44,-14.15,-3.07,2.18
4339,100.94,-174.21,221.00,-16.02,-8.17,0.51
4349,98.19,-150.14,208.75,-16.44,-9.72,-1.36
4362,101.88,-110.84,-0.06,-16.46,-12.17,-6.13
4367,102.56,-64.24,174.06,-16.46,-12.17,-6.13
4377,99.31,-31.58,141.94,-16.23,-12.85,-7.67
4389,92.94,-11.65,106.31,-15.89,-12.43,-8.07
4399,80.81,9.97,71.12,-15.65,-6.51,-3.22
4410,61.44,35.84,36.88,-12.49,1.19,-1.79
4416,37.81,62.02,6.94,-12.49,-326.49,-1.79
4434,-29.19,84.72,-20.00,-14.63,6.62,0.13
4440,-16.00,88.88,-0.06,-10.21,0.85,8.82
4450,-71.69,70.40,-21.38,10.97,20.54,20.84
4459,-66.00,55.88,-28.06,6.28,6.97,11.25
4467,-112.75,52.93,-77.69,6.28,6.97,11.25
4476,-123.31,57.07,-116.31,-2.71,-4.29,1.35
4488,-131.00,72.15,-113.44,-3.80,-5.45,1.44
4499,-125.06,92.72,-98.56,-7.10,-2.37,14.00
4509,-93.44,112.48,-82.38,-6.00,-4.63,11.28
4516,-83.38,126.04,-82.50,-6.00,-4.63,11.28
4528,-64.50,129.07,-87.94,-6.57,-0.97,11.28
4539,-47.56,125.61,-83.56,-7.81,3.53,10.98
4549,-44.88,121.98,-73.00,-9.77,7.28,9.62
4559,-52.31,119.90,-60.25,-13.89,4.08,12.03
4567,-69.00,120.26,-49.75,-13.89,4.08,12.03
4577,-87.81,118.99,-45.50,-13.33,2.51,12.93
4594,-97.31,102.59,-43.50,-10.36,-0.57,11.93
4600,-89.00,68.43,-40.31,-5.85,2.30,10.13
4610,-83.12,34.99,-33.25,-6.91,1.54,9.66
4617,-74.19,17.34,-28.56,-6.93,0.93,9.51
4630,-64.94,11.70,-25.94,-6.23,1.34,9.14
4640,-56.94,8.95,-23.50,-6.11,1.72,8.81
4650,-49.00,5.56,-21.81,-5.56,1.74,8.72
4659,-40.19,1.57,-18.81,-5.08,1.50,8.60
4667,-33.44,-1.84,-15.75,-5.21,1.37,8.49
4676,-28.56,-3.84,-13.56,-5.72,1.36,8.56
4689,-23.56,-4.91,-10.88,-5.27,1.63,8.68
4699,-20.75,-6.12,-10.12,-4.94,1.54,8.46
4709,-19.88,-7.39,-10.56,-5.45,1.40,8.54
4717,-18.69,-8.01,-10.19,-4.83,1.51,8.60
4728,-16.88,-7.85,-8.75,-3.68,1.33,8.68
4743,-15.75,-7.12,-8.44,-5.31,0.98,8.63
4751,-6.06,-5.98,-7.75,-3.57,1.21,8.56
4762,-4.38,-4.79,-6.62,-5.24,1.15,8.75
4771,-3.12,-3.63,-6.31,-5.24,1.15,8.75
4779,-1.69,-2.44,-5.81,-3.56,1.25,8.61
4791,-0.88,-1.24,-5.44,-5.24,0.98,8.58
4801,-7.94,0.05,-5.25,-3.77,1.22,8.37
4811,-7.06,1.32,-4.81,-3.63,1.27,8.46
4820,-5.38,2.40,-3.75,-3.63,1.27,8.46
4829,-4.81,3.38,-3.75,-5.28,1.05,8.54
4843,-3.81,4.30,-3.06,-5.35,0.95,8.44
4851,-3.19,5.09,-2.50,-3.60,0.80,8.43
4862,-2.56,5.67,-2.00,-5.19,0.95,8.09
4870,-2.06,6.14,-1.62,-5.19,0.95,8.09
4879,-1.44,6.44,-1.50,-5.41,1.01,8.12
4891,-1.56,6.51,-2.12,-5.63,0.88,8.14
4901,-1.38,6.34,-2.00,-5.58,1.09,8.21
4910,-1.75,5.95,-2.50,-5.58,1.09,8.21
4920,-2.25,5.44,-2.94,-5.46,0.86,8.14
4929,-2.25,4.86,-2.69,-5.56,0.91,8.07
4941,-1.81,4.40,-1.94,-5.43,0.86,8.29
4951,-1.69,4.18,-1.44,-5.53,0.84,8.38
4961,-1.31,4.14,-1.31,-5.53,0.84,8.38
4970,-1.31,4.13,-1.62,-5.19,0.75,8.19
4980,-0.94,4.10,-1.19,-3.84,0.98,8.44
4990,-0.88,4.21,-1.25,-5.40,0.84,8.29
5001,-0.06,4.53,-0.31,-5.38,0.76,8.08
5011,8.06,4.96,-0.06,-5.53,0.88,8.24
5020,8.19,5.38,0.12,-5.49,0.81,8.13
5030,8.06,5.66,0.00,-5.44,0.95,8.17
5045,8.12,5.78,0.00,-5.44,0.92,8.07
5051,8.00,5.85,-0.69,-5.49,1.05,8.18
5061,-0.12,5.94,-1.38,-5.36,0.87,8.03
5070,-0.50,6.02,-1.88,-5.34,1.08,8.29
5079,-0.69,6.08,-2.62,-5.64,0.83,8.10
5089,-0.69,6.06,-3.25,-3.80,1.24,8.17
5101,-1.25,5.88,-4.12,-5.61,1.03,8.18
5111,-1.69,5.62,-5.19,-5.25,1.04,8.10
5119,-1.81,5.33,-5.44,-5.42,0.83,8.26
5129,-2.25,5.13,-6.38,-5.66,0.97,8.08
5140,-2.50,5.03,-6.50,-5.39,1.19,8.14
5151,-3.38,4.94,-6.56,-5.52,1.07,8.14
5162,-4.38,4.93,-7.25,-5.30,1.12,8.16
5169,-5.25,5.18,-8.00,-5.48,1.04,8.10
5181,-5.94,5.86,-8.88,-5.41,1.01,8.33
5190,-6.69,7.07,-10.12,-5.16,0.94,8.18
5219,-7.00,8.91,-11.44,-5.35,1.06,8.36
5230,-6.88,11.42,-13.62,-3.68,0.78,8.23
5238,-7.06,14.70,-15.94,-3.67,0.83,7.58
5252,-7.19,19.03,-18.81,-3.55,0.43,8.22
5258,-6.19,24.54,-21.31,-5.39,0.75,9.19
5265,-3.88,30.74,-20.56,-5.96,3.04,9.31
5272,-6.44,37.07,-23.62,-3.70,0.44,7.88
5279,-6.44,44.82,-28.38,-3.70,0.44,7.88
5288,-5.88,56.34,-32.75,-5.42,0.67,8.34
5295,-6.44,71.44,-32.94,-5.15,0.95,8.77
5302,-7.12,87.89,-30.31,-5.76,0.83,8.27
5311,-0.88,104.09,-26.69,-5.66,0.76,8.78
5319,-2.62,117.68,-22.62,-5.64,1.11,8.48
5329,-6.69,126.86,-22.19,-6.01,1.10,7.82
5341,-18.38,133.91,-22.94,-6.09,0.94,7.99
5355,-21.56,142.43,-25.94,-6.29,1.31,7.71
5362,-23.88,153.73,-31.94,-5.51,1.34,8.02
5369,-17.38,166.94,-40.06,-5.69,1.04,7.92
5379,-18.88,180.80,-51.62,-6.15,1.07,8.05
5390,-19.44,195.35,-64.31,-6.38,0.89,9.26
5401,-21.50,211.67,-76.62,-8.23,0.98,9.86
5411,-4.56,229.96,-89.50,-8.08,0.79,9.26
5420,-2.50,248.64,-100.88,-8.31,0.80,9.34
5430,11.06,265.83,-109.56,-8.93,0.52,9.93
5440,27.06,280.62,-117.88,-10.59,0.65,10.38
5451,45.31,292.20,-124.56,-10.96,0.84,10.53
5462,59.88,298.48,-132.31,-11.02,0.95,9.18
5469,62.44,296.57,-143.56,-10.33,1.87,8.25
5479,56.00,285.24,-153.75,-12.84,1.39,7.74
5490,58.56,265.67,-153.00,-10.69,2.40,6.68
5500,57.94,239.28,-152.81,-10.85,3.21,12.38
5510,47.69,204.90,-148.88,-11.05,5.72,18.09
5520,42.44,159.14,-137.62,-13.71,10.10,18.08
5529,31.56,102.59,-120.38,-6.30,10.67,14.45
5540,29.44,41.78,-89.56,-4.50,10.41,11.31
5551,11.12,-14.57,-64.94,-2.98,8.73,10.02
5563,-3.00,-58.35,-38.62,-0.95,6.53,8.11
5592,8.75,-86.63,-11.00,-1.00,5.83,8.01
5600,13.69,-102.53,11.75,-2.92,5.45,8.43
5607,10.56,-112.06,30.25,-3.73,5.26,9.00
5615,13.19,-121.31,45.06,-5.37,4.08,9.89
5622,24.94,-134.09,56.50,-5.38,2.97,9.74
5630,31.12,-151.61,64.69,-5.76,2.07,9.49
5637,40.69,-172.85,69.69,-6.22,1.41,9.21
5645,42.94,-195.27,69.31,-5.83,1.64,8.51
5657,57.38,-216.87,66.25,-5.69,1.70,8.01
5670,60.88,-237.10,64.81,-5.51,1.64,7.44
5679,56.81,-254.01,66.00,-6.34,1.47,6.72
5687,63.06,-263.71,68.88,-5.98,1.82,5.89
5693,79.12,-263.96,74.50,-5.63,2.87,6.29
5700,76.69,-255.99,84.38,-7.78,3.80,6.79
5710,77.12,-243.63,98.62,-0.74,-0.01,-0.01
5719,74.69,-231.02,117.25,-8.35,3.98,7.22
5729,79.50,-219.82,137.75,-8.13,3.06,7.42
5740,79.88,-208.54,153.75,-8.45,1.83,8.38
5754,88.00,-194.57,163.94,-9.57,0.50,10.12
5763,91.56,-177.79,168.44,-13.04,-0.50,12.98
5769,93.50,-164.26,166.00,-10.38,-0.65,11.85
5779,93.19,-161.11,151.62,-10.45,-1.37,10.90
5789,78.56,-165.64,131.69,-8.23,-2.19,10.23
5802,88.06,-168.49,114.19,-8.31,-1.42,10.34
5823,95.44,-163.85,101.12,-11.10,-0.18,11.61
5870,95.38,-152.36,95.31,-13.64,1.23,13.20
5939,104.19,-139.41,98.75,-18.17,3.08,15.30
5952,123.69,-131.46,112.12,-18.82,4.74,14.37
5962,111.00,-132.35,128.56,-21.12,3.77,13.30
5974,108.44,-142.22,150.62,-20.84,1.14,11.10
5986,106.94,-157.89,174.00,-15.88,-4.76,5.78
5995,111.81,-172.34,187.44,-15.66,-4.44,4.08
6003,92.44,-177.67,186.69,-15.65,-4.71,2.60
6009,78.69,-170.92,177.62,-16.54,-7.04,0.66
6016,59.31,-154.61,162.69,-15.81,-10.55,-4.45
6029,47.75,-132.94,142.75,-15.89,-12.06,-6.95
6036,43.38,-108.41,115.12,-15.48,-13.80,-8.80
6047,41.00,-80.77,87.12,-16.14,-14.32,-9.55
6068,44.44,-48.92,59.88,-13.31,-7.32,-9.84
6080,13.31,-12.02,21.06,-15.42,-6.43,-7.19
6087,-51.38,28.78,-22.94,-10.46,-9.30,-3.20
6095,-53.88,67.28,-58.50,-3.72,-4.96,12.64
6102,-34.38,93.20,-79.75,7.07,13.58,24.35
6111,-50.12,99.08,-122.19,4.37,6.03,13.94
6117,-99.38,90.21,-169.12,2.37,-1.96,1.56
6125,-98.06,86.23,-150.31,-0.60,-3.74,-4.89
6132,-68.81,104.56,-112.69,-12.97,3.20,15.29
6138,-55.19,138.27,-81.62,-13.80,1.61,15.80
6144,-66.88,161.61,-75.00,-11.04,-1.39,12.91
6154,-55.50,161.48,-71.38,-5.99,0.95,11.83
6162,-49.88,147.78,-58.44,-8.95,4.86,12.69
6173,-51.94,133.62,-53.00,-11.06,4.93,12.36
6179,-71.94,121.48,-50.81,-13.51,4.43,12.84
6186,-84.31,105.10,-41.12,-5.35,-0.22,11.88
6192,-82.00,78.83,-35.19,-5.48,0.20,10.21
6199,-70.88,48.75,-30.88,-7.82,2.24,10.11
6232,-49.19,25.63,-24.31,-5.54,1.69,9.40
6239,-36.31,11.72,-19.25,-6.11,1.36,8.97
6246,-23.06,3.97,-14.88,-5.59,1.96,8.64
6252,-21.94,0.05,-10.19,-5.33,2.16,8.67
6260,-18.00,-1.44,-8.44,-5.40,2.30,8.36
6273,-16.81,-1.58,-7.50,-3.82,1.92,8.26
6279,-16.19,-1.26,-6.69,-3.51,1.81,8.28
6286,-6.94,-1.02,-6.38,-3.59,1.60,7.99
6297,-6.75,-1.03,-6.25,-5.26,1.29,8.14
6308,-5.56,-1.40,-5.88,-3.75,1.20,8.38
6315,-5.31,-2.31,-5.69,-5.25,1.31,8.46
6324,-5.62,-3.45,-5.81,-3.66,1.30,8.58
6332,-5.69,-4.19,-5.75,-3.56,1.45,8.39
6340,-6.25,-4.18,-6.38,-5.20,1.19,8.48
6347,-5.00,-3.57,-5.94,-3.72,1.37,8.73
6353,-4.00,-2.91,-5.38,-5.21,1.17,8.55
6361,-2.81,-2.52,-5.00,-5.31,1.16,8.40
6377,-1.88,-2.26,-4.62,-5.33,1.08,8.43
6384,-0.44,-1.94,-3.88,-5.44,1.17,8.57
6391,-7.56,-1.55,-3.44,-5.68,1.04,8.57
6398,-5.75,-1.18,-2.12,-3.54,1.32,8.42
6404,-4.75,-0.70,-1.88,-3.82,0.92,8.44
6410,-3.56,0.12,-0.94,-5.37,0.75,8.39
6417,-2.56,1.16,-0.50,-5.15,0.72,8.39
6425,-1.50,2.19,0.19,-5.26,1.07,8.25
6432,-0.88,3.03,0.62,-5.38,0.64,8.35
6439,-0.31,3.62,0.50,-3.67,1.02,8.37
6446,8.12,4.00,0.25,-3.80,1.04,8.15
6453,-0.44,4.27,-0.19,-5.28,1.13,8.18
6460,-0.69,4.39,-0.56,-5.21,1.17,8.26
6470,-1.19,4.15,-1.19,-5.22,1.39,8.25
6481,-1.88,3.62,-1.56,-5.40,1.09,8.18
6488,-2.25,3.00,-2.19,-5.31,1.10,8.08
6495,-1.94,2.48,-2.06,-5.36,1.24,8.30
6502,-1.94,2.18,-2.06,-5.21,0.95,8.14
6509,-2.25,2.03,-2.50,-5.22,1.11,8.43
6532,-2.69,1.96,-2.69,-5.46,1.02,8.14
6539,-2.88,1.95,-2.81,-5.41,1.01,8.27
6547,-2.88,1.95,-2.69,-5.26,1.00,8.19
6554,-2.75,1.91,-2.88,-5.24,-326.56,8.27
6563,-3.00,1.95,-2.94,-5.48,0.97,8.42
6574,-2.69,2.10,-2.75,-5.14,0.93,8.32
6582,-2.81,2.25,-2.62,-5.28,0.90,8.29
6588,-2.38,2.33,-2.50,-5.42,0.99,8.30
6595,-2.56,2.36,-2.62,-5.21,1.09,8.34
6602,-2.00,2.37,-2.38,-3.81,1.05,8.21
6611,-2.62,2.35,-3.00,-5.54,0.84,8.10
6622,-2.88,2.23,-3.56,-5.32,0.98,8.18
6629,-2.94,1.93,-3.62,-5.42,1.05,8.32
6643,-3.69,1.57,-4.44,-5.38,0.99,8.14
6661,-3.69,1.31,-4.38,-3.69,1.07,8.39
6669,-3.88,1.21,-4.38,-5.52,1.02,8.06
6686,-4.62,1.31,-5.44,-5.29,1.16,8.24
6694,-4.62,1.59,-5.50,-3.79,0.85,8.21
6703,-5.19,1.96,-5.81,-5.25,1.10,8.39
6711,-5.62,2.50,-6.50,-5.24,1.05,8.27
6721,-6.00,3.19,-7.19,-5.15,0.91,8.42
6736,-6.19,4.06,-7.38,-3.79,1.01,8.43
6746,-6.12,5.23,-8.25,-5.27,0.90,8.33
6753,-6.50,6.74,-9.44,-5.28,1.02,8.35
6764,-6.69,8.47,-10.75,-5.32,0.64,8.23
6783,-6.81,10.37,-13.12,-5.29,0.88,8.34
6790,-6.19,12.45,-14.25,-3.61,1.25,8.25
6797,-6.88,14.84,-16.75,-3.75,0.67,8.16
6804,-6.56,17.77,-18.31,-5.22,0.90,8.80
6811,-5.19,21.18,-19.31,-5.58,1.94,8.94
6819,-3.81,24.79,-20.50,-5.36,1.30,8.36
6826,-5.00,28.65,-24.62,-3.42,1.01,7.78
6833,-4.94,33.28,-29.19,-3.84,0.84,7.98
6841,-5.00,39.28,-33.25,-3.13,0.78,7.91
6847,-5.19,46.88,-34.12,-3.56,1.12,8.31
6854,-6.44,56.42,-33.50,-5.68,0.62,8.41
6862,-6.62,68.14,-31.31,-5.46,0.69,8.52
6869,-7.31,81.15,-28.81,-5.19,0.89,8.37
6877,-1.31,93.95,-26.25,-5.72,0.70,8.33
6887,-3.31,105.89,-25.69,-6.05,0.61,8.24
6895,-6.75,116.14,-25.25,-6.10,1.21,8.17
6904,-18.94,124.21,-26.19,-6.04,1.20,8.23
6911,-22.25,132.15,-29.31,-6.12,1.10,7.78
6921,-17.94,142.02,-34.69,-5.17,0.62,7.92
6929,-19.62,154.02,-41.62,-5.31,0.77,7.64
6939,-22.62,167.52,-49.88,-5.54,0.62,8.14
6949,-32.94,181.91,-60.00,-8.16,1.14,9.40
6959,-23.81,197.26,-70.69,-8.09,1.06,9.18
6969,-16.62,213.78,-82.19,-8.44,1.09,9.24
6985,-17.69,231.03,-92.75,-7.74,0.56,9.91
6993,-9.62,248.09,-102.31,-10.68,0.52,10.55
6999,8.81,263.80,-111.44,-10.34,0.74,11.05
7009,13.88,276.37,-118.19,-11.20,0.73,10.44
7019,25.69,282.81,-125.44,-11.02,1.14,10.04
7029,30.25,280.48,-136.25,-10.81,2.39,8.80
7039,12.19,268.94,-149.44,-13.48,1.00,7.96
7050,12.88,248.69,-152.94,-10.93,1.77,9.05
7059,14.81,219.08,-148.81,-10.78,2.03,15.34
7069,27.00,177.03,-136.12,-5.81,5.64,16.18
7080,29.94,121.47,-123.94,-7.85,8.66,14.41
7090,27.12,61.18,-110.38,-3.04,10.26,11.81
7099,15.69,8.67,-90.81,-3.76,9.91,10.42
7110,-0.75,-31.09,-69.38,-1.17,7.25,8.44
7121,-8.00,-59.31,-39.25,-0.75,6.59,8.44
7133,8.06,-77.27,-10.12,-0.93,5.88,8.57
7141,9.75,-86.77,15.38,-1.24,5.50,8.80
7150,25.25,-92.98,34.69,-3.42,4.48,10.35
7159,30.31,-100.70,46.88,-5.31,3.43,10.73
7172,27.38,-113.36,55.31,-5.58,2.58,10.54
7183,42.62,-133.94,59.94,-5.56,1.26,9.30
7192,45.75,-160.44,59.38,-5.27,1.34,9.30
7201,58.44,-187.14,56.56,-5.65,1.66,8.95
7210,74.81,-211.11,56.25,-5.16,2.03,7.85
7220,78.00,-231.39,58.81,-3.54,1.77,5.54
7230,73.25,-244.71,61.81,-3.66,1.81,5.31
7239,78.44,-247.55,67.44,-6.13,2.49,6.17
7252,93.38,-240.28,74.25,-6.13,3.43,7.24
7260,88.00,-227.60,88.25,-8.44,4.39,7.92
7270,94.31,-215.53,107.25,-8.35,3.91,7.72
7282,90.25,-206.60,125.25,-8.22,2.95,7.58
7293,89.25,-198.88,138.81,-8.62,1.92,8.11
7300,92.94,-189.24,147.00,-8.93,0.41,10.57
7311,93.56,-175.97,151.12,-10.91,0.17,12.39
7321,108.31,-161.21,152.81,-11.33,-0.18,12.58
7330,107.44,-152.36,149.56,-10.51,-0.70,12.02
7339,104.00,-153.84,138.75,-11.33,-1.76,11.44
7351,95.62,-160.52,126.19,-10.32,-1.66,11.83
7359,108.00,-165.45,114.25,-13.05,-1.10,12.97
7370,106.25,-166.95,105.56,-13.94,-0.11,13.49
7380,110.06,-167.78,100.25,-13.67,1.08,13.67
7389,123.00,-170.94,101.31,-13.79,1.99,13.01
7400,125.12,-176.75,106.19,-13.35,3.72,11.08
7409,111.88,-182.84,107.94,-13.72,1.21,11.07
7420,105.50,-186.56,116.44,-13.22,-0.44,9.64
7429,120.88,-187.33,131.62,-13.61,-0.70,7.88
7440,127.94,-185.18,144.12,-10.50,-4.64,6.03
7450,141.88,-178.45,149.62,-10.27,-5.14,5.26
7459,140.31,-164.55,145.75,-13.22,-5.88,4.41
7470,125.81,-143.66,135.75,-12.92,-5.31,2.92
7479,95.12,-120.47,120.94,-13.16,-5.45,0.42
7495,72.19,-99.48,99.44,-13.52,-8.47,-3.65
7503,61.62,-80.62,77.88,-12.93,-8.81,-4.77
7510,62.81,-60.54,62.12,-11.21,-7.65,-5.20
7520,59.19,-36.41,50.19,-11.38,-5.85,-4.68
7531,42.00,-8.35,40.25,-12.85,-3.33,-2.37
7540,42.00,18.09,40.25,-11.04,-3.13,-1.10
7549,-3.44,39.68,21.12,-7.87,3.75,-1.70
7564,-55.56,62.36,5.25,-10.36,4.00,0.29
7571,-113.38,86.26,-6.19,-3.09,3.30,19.69
7580,-81.62,101.99,0.69,6.67,15.70,18.71
7598,-80.62,104.20,-20.31,7.30,10.05,16.75
7605,-128.94,97.73,-86.19,1.40,-1.43,10.44
7613,-133.69,94.44,-123.19,-5.80,-7.74,5.72
7620,-128.81,100.32,-115.69,-6.38,-8.37,6.93
7629,-128.81,109.55,-115.69,-5.42,-5.22,10.86
7639,-117.44,116.51,-101.44,-5.42,-1.59,11.93
7650,-71.19,122.41,-91.75,-5.61,4.24,10.53
7660,-54.62,129.74,-75.44,-8.88,5.50,11.94
7670,-49.00,137.74,-55.88,-10.42,4.09,11.74
7679,-39.88,143.15,-41.19,-10.26,2.55,11.67
7692,-48.12,144.05,-36.31,-8.45,2.27,11.84
7707,-48.25,137.99,-31.94,-7.88,1.29,11.39
7714,-51.25,120.98,-32.31,-8.02,1.06,11.19
7721,-48.06,93.98,-31.56,-8.66,1.90,11.39
7730,-48.06,65.90,-31.56,-5.80,2.83,9.42
7739,-54.12,45.21,-27.56,-6.14,1.95,9.32
7750,-54.62,31.08,-17.94,-5.44,1.09,9.22
7761,-38.69,19.99,-17.19,-5.61,2.17,8.98
7770,-39.00,11.30,-16.00,-5.58,2.30,8.76
7779,-39.00,5.09,-16.00,-5.47,1.99,8.46
7789,-34.56,1.51,-13.75,-5.54,1.66,8.23
7800,-20.12,-0.16,-9.12,-3.75,1.71,8.46
7810,-17.12,-1.04,-8.00,-5.22,1.12,8.54
7820,-23.25,-1.77,-7.75,-5.21,0.79,8.60
7829,-23.25,-2.49,-7.75,-3.49,0.94,8.51
7841,-19.50,-3.16,-6.56,-3.73,0.82,8.59
7850,-6.94,-3.57,-4.75,-3.78,1.47,8.79
7860,-5.00,-3.35,-3.94,-3.65,1.13,8.80
7872,-4.12,-2.62,-3.88,-5.33,1.04,8.50
7879,-4.12,-1.89,-3.88,-5.24,1.24,8.44
7889,-2.94,-1.41,-3.88,-5.19,1.32,8.50
7903,-1.25,-1.13,-3.06,-5.41,1.18,8.34
7910,-0.88,-0.84,-3.50,-5.54,1.08,8.58
7921,-0.31,-0.53,-3.19,-5.20,1.49,8.46
7930,-0.31,-0.28,-3.19,-3.56,1.15,8.51
7939,-7.00,-0.18,-2.56,-5.48,0.76,8.60
7949,-6.44,0.02,-2.38,-3.74,1.15,8.35
7960,-4.88,0.77,-2.00,-5.50,0.72,8.40
7971,-4.25,1.99,-1.56,-3.68,1.28,8.40
7979,-4.25,3.10,-1.56,-3.84,0.85,8.53
7990,-2.56,3.79,-0.50,-5.28,0.69,7.98
8004,-1.56,4.22,-0.94,-3.81,1.15,8.21
8012,-1.69,4.54,-0.88,-5.24,1.21,8.25
8020,-2.50,4.50,-1.69,-5.49,1.03,8.20
8029,-2.50,4.10,-1.69,-5.16,1.19,8.18
8040,-2.75,3.50,-3.06,-5.49,1.11,8.29
8051,-3.31,2.63,-4.38,-5.20,1.02,7.96
8060,-3.38,1.62,-4.81,-5.40,1.00,8.41
8071,-3.62,0.84,-5.00,-5.32,1.12,8.35
8079,-3.62,0.43,-5.00,-5.40,0.85,8.32
8089,-3.06,0.26,-4.94,-5.21,0.86,8.18
8111,-3.25,0.23,-4.56,-5.38,0.91,8.40
8122,-2.56,0.37,-4.19,-5.28,1.16,8.36
8129,-2.00,0.73,-3.69,-5.39,0.93,8.23
8136,-2.00,1.15,-3.69,-5.30,0.93,8.19
8144,-2.19,1.48,-3.19,-5.24,1.03,8.42
8153,-2.25,1.69,-3.00,-5.44,0.96,8.32
8160,-2.38,1.90,-3.00,-5.39,1.07,8.16
8170,-2.50,2.23,-3.19,-5.24,0.89,8.36
8179,-2.50,2.53,-3.19,-3.76,1.09,8.41
8189,-2.19,2.68,-3.25,-3.77,1.00,8.39
8206,-2.56,2.86,-3.88,-3.69,0.84,8.37
8214,-2.25,3.16,-3.94,-5.22,0.94,8.47
8221,-1.94,3.61,-4.62,-3.80,1.02,8.23
8229,-1.94,4.19,-4.62,-5.37,1.10,8.23
8239,-1.88,4.79,-5.06,-3.75,0.97,8.12
8251,-1.56,5.37,-5.31,-5.62,0.99,8.33
8260,-1.88,5.98,-5.88,-3.81,1.06,7.98
8270,-2.31,6.56,-6.19,-5.30,1.14,8.07
8279,-3.31,6.94,-7.12,-5.30,1.14,8.07
8290,-4.25,7.17,-7.69,-5.33,1.03,8.24
8301,-4.69,7.34,-8.50,-5.34,1.20,8.29
8313,-5.88,7.63,-11.12,-5.20,0.95,8.26
8324,-5.88,8.18,-11.12,-5.45,0.96,8.40
8332,-6.50,8.90,-12.00,-4.99,0.84,8.23
8339,-7.00,9.82,-13.31,-5.53,1.26,7.93
8350,-7.12,11.09,-14.25,-3.51,0.66,7.49
8361,-7.38,12.74,-15.25,-4.65,0.68,8.25
8371,-0.12,14.94,-16.38,-5.52,0.99,8.89
8379,-0.12,18.16,-18.94,-5.52,0.99,8.89
8389,-7.56,22.40,-19.31,-3.16,1.51,8.05
8401,-8.31,27.07,-21.94,-5.21,1.05,7.88
8416,-8.69,32.39,-28.31,-3.24,0.63,8.32
8425,-10.38,39.76,-35.19,-3.32,1.15,8.51
8432,-2.62,50.10,-37.62,-4.60,1.15,8.51
8440,-3.25,63.38,-37.88,-5.55,1.06,9.22
8450,-11.44,80.16,-37.00,-3.29,0.37,9.01
8461,-12.81,100.17,-34.69,-5.52,0.89,8.35
8470,-16.06,120.89,-34.50,-5.98,0.77,8.44
8480,-20.62,139.29,-32.50,-5.98,0.77,8.44
8489,-17.31,153.67,-32.50,-6.00,1.06,8.11
8502,-29.38,165.65,-35.50,-5.17,0.90,8.07
8518,-32.12,178.24,-41.50,-5.76,0.69,8.19
8526,-36.44,192.34,-50.75,-5.99,0.70,9.63
8533,-33.44,207.54,-62.50,-5.99,0.70,9.63
8540,-38.56,224.18,-74.38,-8.38,0.79,10.78
8551,-20.75,242.84,-87.12,-10.48,0.53,10.50
8561,-21.62,262.67,-100.19,-11.16,0.23,11.71
8571,-2.94,281.55,-111.69,-13.27,0.87,11.44
8580,8.12,297.57,-121.56,-13.27,0.87,11.44
8590,28.88,308.32,-129.88,-13.26,1.56,10.22
8605,47.44,309.72,-138.94,-13.73,0.56,11.16
8617,41.25,297.69,-144.56,-10.68,3.37,19.92
8626,58.50,270.51,-147.56,-5.63,4.14,17.60
8633,59.31,226.69,-145.50,-5.63,4.14,17.60
8641,62.12,165.01,-144.56,-5.81,6.75,14.75
8651,47.00,94.78,-149.62,-2.72,10.29,8.88
8661,29.06,33.07,-141.19,-1.18,9.63,8.71
8671,7.12,-11.29,-121.94,-1.06,9.21,8.38
8679,-2.69,-38.49,-91.69,-1.06,9.21,8.38
8690,8.25,-52.63,-52.56,-2.66,8.74,8.41
8700,15.06,-60.11,-13.56,-3.25,6.27,8.92
8712,14.50,-57.18,-0.06,-2.87,5.22,9.49
8723,28.25,-48.52,45.38,-3.45,4.01,9.95
8730,25.88,-58.16,61.75,-3.45,4.01,9.95
8739,41.25,-86.22,71.69,-6.19,2.29,10.50
8750,42.38,-116.47,76.62,-5.39,1.77,9.50
8761,50.69,-144.37,77.19,-5.28,1.62,8.78
8771,55.38,-169.95,74.19,-6.16,0.84,7.57
8779,58.31,-193.06,70.38,-6.16,0.84,7.57
8789,63.88,-212.24,68.31,-6.09,0.50,7.24
8800,74.50,-225.75,69.38,-5.38,1.69,6.79
8812,93.44,-232.71,72.06,-7.71,3.42,7.07
8821,91.06,-233.67,76.44,-7.98,3.74,7.17
8833,91.56,-230.08,85.69,-7.98,3.74,7.17
8839,89.38,-223.32,99.31,-8.24,3.75,7.29
8850,87.06,-214.48,117.25,-8.50,2.14,9.94
8861,94.94,-203.63,135.00,-10.45,1.78,11.90
8872,90.75,-190.10,149.94,-10.90,1.53,12.47
8880,105.44,-175.55,163.56,-10.90,1.53,12.47
8888,94.00,-165.04,169.12,-10.64,0.02,11.07
8901,91.50,-162.03,164.25,-10.76,-1.67,11.76
8911,77.06,-163.48,153.69,-11.06,-1.35,13.15
8928,89.62,-163.28,144.06,-13.07,1.05,14.37
8936,91.00,-159.29,138.12,-13.07,1.05,14.37
8943,95.62,-154.58,134.62,-15.83,1.50,14.98
8950,107.44,-152.95,135.62,-18.16,3.81,13.36
8962,109.62,-155.80,141.88,-18.35,0.48,10.98
8971,95.25,-162.66,146.69,-15.61,-2.98,8.46
8978,89.19,-171.76,158.44,-15.61,-2.98,8.46
8990,95.88,-180.42,173.44,-15.60,-5.27,6.92
9000,105.75,-184.88,184.75,-15.61,-3.72,5.73
9011,106.75,-181.26,182.81,-15.96,-7.58,1.26
9023,89.62,-168.69,170.88,-15.72,-8.18,-1.59
9034,75.56,-150.36,159.50,-15.72,-8.18,-1.59
9041,61.88,-130.28,139.69,-16.57,-9.60,-4.44
9051,61.75,-109.37,112.56,-14.01,-12.48,-7.95
9061,57.81,-85.22,85.81,-13.57,-9.02,-7.27
9071,72.25,-55.72,62.75,-13.73,-6.86,-5.69
9079,57.00,-21.73,40.88,-13.73,-6.86,-5.69
9089,43.50,13.01,21.44,-14.05,-2.03,-2.16
9101,8.25,44.04,5.62,-13.41,4.57,-2.30
9111,-50.94,69.60,-14.62,-0.21,-1.72,15.79
9127,-97.75,87.49,-24.06,11.77,17.10,21.71
9147,-54.06,92.37,-21.38,11.77,17.10,21.71
9155,-53.25,85.33,-45.31,6.67,5.73,14.57
9164,-102.31,75.57,-106.44,-0.14,-3.67,6.26
9178,-99.81,74.25,-139.00,-3.43,-6.54,1.29
9185,-6.88,72.38,-0.06,-6.63,-4.97,8.37
9191,-81.31,67.32,-98.00,-8.01,0.03,13.53
9198,-55.06,84.99,-82.25,-8.76,-0.55,12.42
9205,-54.00,116.06,-84.31,-7.77,3.44,10.87
9213,-49.19,132.79,-78.00,-8.95,5.62,11.24
9221,-44.50,135.50,-62.81,-9.84,6.07,11.64
9237,-49.25,132.25,-48.56,-10.54,4.65,11.33
9245,-54.00,127.18,-42.19,-12.97,2.96,13.22
9252,-65.56,119.58,-39.12,-1.26,-0.01,-0.01
9261,-86.88,102.40,-37.12,-4.63,0.72,10.02
9271,-71.88,72.83,-33.69,-5.73,1.12,10.14
9282,-67.12,43.20,-27.88,-6.24,1.37,9.24
9290,-65.50,24.91,-24.19,-6.23,1.90,8.96
9301,-54.75,15.37,-19.56,-5.93,1.58,8.77
9311,-43.69,8.81,-16.75,-5.74,1.45,8.74
9325,-34.69,3.68,-16.50,-5.45,1.96,8.64
9343,-18.44,-0.15,-14.56,-5.19,1.75,8.47
9350,-20.44,-3.01,-11.94,-5.38,1.60,8.14
9357,-17.12,-4.90,-10.38,-3.81,1.61,8.48
9364,-16.69,-5.79,-9.06,-5.28,1.47,8.49
9371,-17.31,-5.99,-9.50,-5.21,1.29,8.45
9379,-17.88,-5.97,-9.38,-5.19,1.28,8.49
9389,-17.69,-6.00,-9.31,-3.65,1.15,8.45
9401,-17.00,-6.00,-9.06,-3.53,1.11,8.60
9411,-7.50,-5.81,-7.81,-3.67,1.15,8.77
9423,-5.62,-5.39,-6.81,-4.94,0.88,8.61
9441,-4.31,-4.74,-6.31,-5.26,0.99,8.49
9449,-10.75,-3.91,-5.75,-5.28,1.20,8.49
9456,-9.69,-3.00,-5.38,-3.61,1.20,8.76
9463,-0.75,-2.15,-4.94,-5.04,1.03,8.48
9471,-0.12,-1.39,-5.31,-5.36,1.00,8.45
9479,-7.38,-0.60,-4.81,-3.65,1.38,8.48
9489,-6.25,0.17,-4.19,-5.27,0.92,8.35
9502,-5.56,0.92,-3.88,-5.59,0.89,8.52
9511,-4.50,1.70,-3.50,-5.47,0.76,8.30
9521,-3.75,2.39,-2.81,-5.33,0.46,8.49
9541,-3.25,2.97,-2.31,-3.72,1.14,8.42
9548,-2.25,3.50,-1.25,-5.47,0.64,8.30
9555,-1.75,4.04,-1.25,-5.59,0.97,8.22
9562,-1.06,4.69,-1.12,-5.28,0.97,8.27
9570,-0.81,5.36,-0.62,-5.28,0.94,8.43
9581,-0.94,5.75,-1.06,-5.27,0.77,8.16
9589,-1.25,5.68,-1.94,-5.50,1.07,8.27
9599,-1.06,5.33,-1.75,-5.44,0.72,8.11
9611,-0.94,4.91,-1.94,-3.79,1.05,8.28
9622,-0.50,4.56,-1.94,-5.72,0.56,8.25
9642,-0.38,4.30,-2.12,-5.39,0.60,8.29
9649,-0.25,4.13,-1.50,-5.42,0.69,8.24
9658,8.19,4.08,-1.56,-5.26,0.83,8.33
9666,8.50,4.09,-1.56,-5.37,0.66,8.22
9673,9.00,4.15,-1.44,-5.62,0.77,8.06
9679,9.25,4.40,-1.25,-5.37,0.79,8.13
9690,9.44,4.84,-1.00,-5.15,1.05,8.35
9699,9.62,5.23,-0.75,-5.28,0.77,8.15
9710,9.25,5.54,-1.69,-5.45,0.97,8.10
9720,9.25,5.85,-1.56,-5.27,1.13,8.28
9730,8.88,6.04,-1.25,-5.16,1.03,8.24
9746,8.12,6.05,-2.38,-3.75,1.14,8.28
9753,-0.19,5.90,-2.88,-5.26,1.06,8.26
9760,-0.94,5.59,-3.25,-5.17,0.89,8.20
9771,-1.38,5.24,-4.50,-5.43,1.08,8.24
9778,-1.75,5.03,-4.94,-5.20,0.98,8.21
9789,-2.00,4.98,-5.44,-5.43,1.20,8.32
9799,-2.19,5.00,-5.69,-5.47,0.92,8.18
9810,-2.56,5.13,-6.62,-5.35,1.25,8.15
9820,-3.31,5.34,-7.12,-5.48,1.03,8.08
9829,-4.44,5.50,-7.75,-5.22,1.25,8.17
9845,-5.25,5.50,-8.06,-5.46,1.02,8.19
9972,-6.31,5.42,-9.06,-5.40,1.02,8.02
10038,-7.38,5.53,-10.50,-5.06,1.04,8.30
10070,-7.94,6.08,-11.19,-5.30,0.56,8.31
10102,-0.69,7.26,-12.88,-5.23,0.84,8.39
10110,-0.94,9.09,-14.75,-5.72,1.14,7.27
10119,-1.31,11.71,-15.94,-3.49,0.54,8.42
10136,-1.06,15.61,-18.12,-5.58,1.59,9.54
10148,-0.19,20.60,-18.69,-5.56,1.60,8.84
10167,-0.69,25.75,-20.69,-3.36,0.96,8.18
10191,-1.31,31.09,-27.06,-3.48,0.66,8.43
10207,-3.44,38.20,-33.50,-2.62,1.19,8.45
10214,-3.56,48.46,-36.56,-4.29,1.35,8.33
10220,-4.50,62.16,-37.56,-3.66,0.93,8.77
10254,-5.50,79.40,-36.69,-5.36,0.49,9.36
10278,-6.12,99.89,-35.69,-5.26,0.81,9.05
10288,-17.88,121.54,-36.38,-5.61,1.01,8.57
10295,-22.81,140.91,-35.44,-6.25,0.95,7.99
10304,-20.81,156.12,-36.31,-6.10,0.71,8.04
10356,-34.00,168.58,-40.56,-6.27,1.07,8.27
10369,-37.19,181.40,-47.44,-6.39,0.97,8.03
10377,-35.19,195.90,-56.88,-5.71,0.54,8.83
10401,-39.00,211.72,-68.31,-6.18,0.72,10.98
10411,-34.50,229.24,-80.31,-7.74,1.80,9.82
10418,-34.25,248.99,-92.69,-7.79,0.59,10.33
10425,-18.25,270.09,-104.44,-10.77,0.04,12.09
10434,-0.94,290.52,-113.44,-11.28,-0.27,12.61
10450,25.19,308.34,-122.94,-14.05,0.23,12.35
10476,45.25,320.51,-130.12,-13.83,1.28,11.58
10484,58.50,321.61,-136.75,-13.69,0.98,11.09
10497,61.75,306.41,-140.31,-11.29,2.32,12.09
10503,72.69,273.02,-140.81,-11.02,4.23,20.63
10510,59.00,220.56,-134.94,-8.37,5.83,19.64
10517,60.19,149.31,-126.19,-5.83,10.56,11.96
10523,43.56,72.18,-123.56,-0.66,10.55,9.12
10531,8.12,9.19,-108.56,-0.52,9.19,7.84
10537,-5.31,-31.33,-88.00,-0.87,8.06,8.50
10542,-5.75,-52.66,-56.69,-0.59,6.55,8.33
10552,-2.88,-61.71,-22.75,-0.75,5.91,8.73
10561,11.88,-64.85,9.06,-0.84,5.43,9.07
10568,24.56,-67.27,33.69,-2.96,4.37,10.56
10576,29.44,-73.84,48.62,-5.36,3.57,11.25
10583,31.88,-88.42,57.19,-6.22,2.65,-0.01
10589,44.50,-111.28,63.12,-5.21,1.95,11.11
10596,43.56,-139.61,66.00,-5.61,1.57,8.41
10605,56.50,-170.08,65.19,-5.55,1.53,7.46
10613,59.12,-198.80,62.06,-3.29,1.28,6.26
10621,61.94,-221.94,59.31,-5.01,1.26,6.13
10650,59.81,-235.93,59.31,-6.23,2.09,6.77
10666,76.12,-239.20,63.25,-5.86,3.10,7.32
10676,75.25,-234.84,70.62,-7.98,4.01,7.56
10683,77.94,-227.79,82.69,-7.85,4.34,7.30
10689,76.44,-221.12,98.81,-8.05,3.67,7.10
10696,76.69,-214.98,117.44,-8.57,3.05,7.86
10703,-1968.56,-207.27,135.31,-8.68,2.26,9.47
10712,93.75,-196.25,149.44,-11.24,1.68,11.06
10718,95.12,-183.10,162.19,-11.23,0.90,11.89
10725,94.94,-172.69,168.25,-11.95,0.15,11.40
10733,95.94,-169.32,163.19,-10.45,-0.73,11.20
10744,90.50,-171.13,152.75,-10.36,-1.31,11.28
10760,90.62,-172.76,141.31,-13.53,-0.62,13.16
10769,94.81,-171.11,130.62,-13.93,0.23,14.37
10777,93.12,-167.15,123.94,-16.20,1.31,-0.01
10784,104.94,-164.80,122.06,-16.48,2.15,14.03
10790,104.44,-167.11,123.06,-15.95,2.16,11.81
10797,94.19,-172.84,121.62,-18.18,0.06,12.02
10804,88.31,-178.49,127.88,-18.33,-0.36,11.14
10811,106.25,-183.05,142.69,-16.32,-1.90,7.94
10818,120.12,-186.81,154.88,-11.18,-5.27,4.93
10825,141.56,-186.72,157.06,-13.99,-6.20,4.69
10837,110.38,-175.60,129.31,-15.94,-6.59,4.02
10846,110.38,-153.62,129.31,-16.23,-6.73,-0.86
10852,91.44,-132.15,111.12,-15.41,-8.73,-3.79
10884,60.00,-116.15,88.19,-13.12,-10.76,-6.14
10890,62.38,-100.30,66.44,-13.65,-11.03,-7.59
10897,72.25,-73.95,35.44,-13.52,-7.34,-6.94
10904,72.25,-35.40,35.44,-13.71,-5.31,-5.32
10912,59.38,1.75,23.56,-13.86,-3.79,-3.48
10919,28.56,32.50,15.00,-13.61,-3.00,-1.80
10925,13.94,59.89,8.75,-11.15,5.49,2.04
10933,-97.25,83.59,1.75,-6.03,1.41,9.69
10941,-97.25,101.77,1.75,-3.51,4.52,17.88
10948,-80.94,110.65,11.88,7.39,15.31,24.64
10954,-65.44,107.51,10.88,4.35,2.72,13.02
10969,-96.19,95.71,-31.81,-0.48,-5.20,4.62
10978,-117.12,87.78,-97.62,-0.67,-7.11,2.65
10984,-117.12,92.24,-97.62,-3.33,-7.77,4.64
10992,-101.56,103.72,-89.12,-6.16,-2.71,13.07
11000,-67.56,113.65,-85.56,-6.31,-1.79,11.14
11006,-52.12,117.39,-83.75,-5.81,-0.24,9.71
11013,-45.12,117.51,-69.19,-6.08,2.89,9.88
11019,-37.12,118.74,-69.19,-8.36,4.78,11.43
11027,-34.00,120.82,-54.50,-8.50,3.95,11.16
11033,-54.69,120.34,-40.88,-10.34,3.30,11.87
11040,-67.75,111.34,-37.19,-11.10,3.44,11.48
11046,-70.62,88.98,-35.62,-8.22,0.01,10.50
11053,-70.62,59.35,-35.62,-3.47,1.05,10.66
11061,-65.19,35.56,-25.19,-6.22,0.96,10.02
11078,-48.19,21.56,-21.25,-5.33,1.41,8.90
11085,-39.56,13.23,-17.75,-5.85,1.86,8.70
11093,-32.88,7.37,-16.62,-5.81,1.65,8.99
11100,-34.31,2.80,-16.62,-5.84,1.36,8.68
11106,-19.38,-0.70,-14.19,-5.13,1.55,8.43
11112,-22.38,-2.89,-11.50,-5.32,1.58,8.56
11121,-18.94,-3.52,-9.00,-5.24,1.47,8.51
11128,-17.56,-3.14,-7.94,-3.83,1.47,8.37
11136,-16.06,-2.54,-6.25,-5.24,1.38,8.46
11150,-6.62,-2.17,-6.06,-5.31,1.34,8.30
11157,-5.06,-2.31,-6.00,-3.78,1.39,8.45
11165,-4.25,-2.81,-5.75,-3.46,1.36,8.38
11178,-4.25,-3.17,-5.38,-5.13,1.19,8.53
11185,-3.62,-3.19,-4.56,-3.73,1.32,8.36
11192,-3.94,-2.92,-5.00,-5.25,1.28,8.51
11200,-4.00,-2.37,-5.19,-3.69,1.43,8.46
11207,-4.00,-1.68,-5.25,-3.81,1.33,8.42
11214,-3.56,-0.98,-5.25,-3.82,1.15,8.62
11220,-2.94,-0.37,-4.75,-3.73,1.18,8.59
11226,-2.12,0.19,-4.69,-3.83,0.99,8.53
11235,-0.69,0.78,-4.19,-3.67,1.28,8.45
11246,-6.69,1.38,-3.06,-5.16,1.36,8.54
11254,-6.06,1.99,-3.25,-5.44,0.92,8.56
11260,-4.94,2.62,-2.75,-5.28,0.65,8.48
11287,-3.62,3.29,-1.88,-5.31,0.61,8.45
11293,-2.50,3.96,-0.94,-5.06,1.00,8.34
11300,-1.62,4.63,-0.69,-5.38,0.74,8.28
11309,-0.75,5.32,-0.81,-5.21,1.24,8.42
11315,-0.56,5.86,-0.62,-3.83,1.25,8.24
11321,-1.44,6.01,-1.81,-5.68,0.84,8.23
11327,-1.38,5.76,-2.00,-3.67,1.22,8.14
11334,-1.50,5.27,-2.50,-5.24,1.20,8.12
11344,-1.44,4.79,-2.81,-5.51,0.99,8.17
11351,-1.56,4.48,-2.88,-5.41,1.03,8.20
11358,-1.38,4.37,-2.94,-5.22,1.07,8.27
11366,-1.50,4.39,-3.12,-3.83,0.99,8.29
11380,-1.81,4.47,-3.12,-5.57,0.79,8.21
11388,-1.38,4.63,-2.81,-5.34,0.88,8.20
11400,-1.44,4.94,-2.56,-5.45,0.75,8.27
11407,-0.94,5.31,-2.06,-3.81,1.01,8.11
11426,-0.88,5.70,-2.00,-5.47,0.96,8.21
11433,-1.12,6.13,-2.19,-5.58,0.84,8.24
11451,-1.06,6.46,-2.31,-5.28,0.91,8.13
11458,-1.00,6.61,-2.75,-5.52,0.84,8.17
11464,-1.25,6.67,-3.44,-5.64,1.04,8.15
11484,-1.38,6.64,-3.75,-5.16,0.95,8.18
11491,-1.56,6.52,-4.38,-5.47,0.91,8.26
11498,-1.44,6.35,-4.56,-5.43,0.95,8.27
11505,-1.19,6.13,-4.62,-5.40,0.85,8.14
11511,-1.06,5.95,-4.88,-5.35,1.00,8.24
11519,-1.12,5.81,-4.69,-5.48,0.86,8.20
11527,-0.75,5.60,-4.50,-5.19,1.01,8.35
11534,-1.00,5.48,-3.88,-5.60,0.93,8.12
11541,-1.31,5.64,-3.12,-5.58,1.15,8.14
11547,-2.25,5.95,-2.81,-5.43,0.98,8.02
11556,-3.25,-234.59,-3.31,-5.97,0.87,8.07
11563,-3.50,-673.75,-3.50,-5.16,1.34,8.15
11575,-4.56,-724.01,-4.50,-5.32,1.19,8.34
11591,-5.50,-395.12,-6.06,-5.22,1.15,8.16
11598,-6.25,-108.83,-7.75,-5.47,0.91,8.21
11605,-6.81,30.92,-10.00,-5.33,1.02,8.25
11618,-7.00,62.61,-11.62,-5.45,0.86,8.23
11627,-7.25,48.57,-13.81,-5.36,0.60,8.27
11635,-6.88,28.90,-16.06,-5.39,1.18,7.67
11642,-6.81,18.57,-18.38,-3.81,0.88,7.96
11650,-6.75,18.36,-21.12,-5.16,0.56,8.31
11660,-5.62,24.18,-21.75,-6.06,2.15,8.38
11667,-7.88,32.29,-23.44,-3.27,0.34,8.09
11679,-7.94,41.78,-27.88,-2.93,0.97,8.26
11687,-7.94,53.97,-32.50,-3.76,0.44,8.10
11694,-1.31,69.11,-33.38,-3.22,0.76,8.36
11701,-2.25,85.62,-32.25,-5.69,1.07,8.77
11707,-4.31,102.02,-29.62,-5.38,1.14,8.24
11716,-5.56,116.85,-26.88,-5.51,0.82,8.78
11722,-17.62,128.87,-26.00,-5.60,0.66,8.54
11731,-21.31,138.74,-28.56,-5.96,1.19,8.22
11737,-16.69,149.48,-32.56,-5.97,1.05,8.12
11744,-18.50,163.22,-39.75,-5.13,1.45,8.14
11751,-19.00,179.75,-49.81,-5.54,0.95,8.15
11757,-19.62,198.18,-62.75,-5.98,0.98,8.60
11764,-23.50,218.19,-76.94,-7.85,0.84,10.32
11769,-6.56,239.75,-91.62,-8.13,2.50,10.41
11776,-3.12,261.97,-106.19,-7.97,1.33,10.20
11786,-4.00,282.84,-118.06,-8.86,0.83,10.94
11792,13.56,300.65,-125.94,-11.07,-0.05,11.51
11797,46.44,313.79,-129.12,-12.91,0.56,11.67
11802,56.75,319.27,-135.50,-11.15,1.29,10.50
11807,62.75,313.81,-145.25,-11.43,2.21,9.80
11813,63.06,296.04,-148.06,-13.96,0.75,10.10
11818,62.06,265.89,-142.94,-8.88,4.11,14.32
11823,56.06,222.25,-138.75,-11.29,6.39,19.76
11828,47.69,164.46,-128.69,-5.59,7.65,17.30
11835,29.69,99.15,-120.94,-11.27,10.16,16.37
11840,4.88,37.40,-98.44,-3.49,11.15,9.96
11846,-23.19,-13.50,-78.81,-3.21,9.30,9.16
11851,-23.44,-50.42,-51.50,-2.58,7.81,8.69
11858,-23.44,-74.42,-4.50,-0.76,6.62,7.31
11863,-23.44,-87.93,-20.50,-2.14,5.45,8.27
11868,-6.88,-92.27,7.62,-2.10,5.36,8.38
11874,16.31,-91.50,48.44,-4.66,5.37,9.84
11880,18.75,-95.54,60.38,-5.29,4.56,10.26
11891,24.56,-112.75,68.38,-6.25,2.46,10.17
11896,24.56,-137.57,68.38,-6.19,1.58,9.46
11902,31.44,-160.09,71.88,-6.34,1.14,8.81
11908,48.06,-183.94,61.62,-6.90,1.16,8.38
11914,53.19,-214.65,56.94,-5.71,1.28,6.72
11919,61.12,-243.69,55.88,-6.41,1.45,6.59
11925,61.12,-260.36,55.88,-6.41,1.45,6.59
11930,70.38,-265.13,58.88,-5.48,1.66,5.70
11936,84.38,-261.36,75.19,-7.45,4.26,6.37
11960,85.06,-249.90,90.19,-8.02,4.91,6.70
11965,83.38,-209.85,-0.06,-8.33,5.00,6.99
11970,83.38,-151.36,110.44,-8.33,5.00,6.99
11976,83.25,-137.57,132.81,-8.24,3.66,7.75
11992,94.88,-160.45,165.88,-11.10,2.02,11.51
12003,100.88,-171.44,184.19,-13.89,1.20,13.68
12009,99.69,-171.17,177.69,-12.96,-0.22,12.86
12014,99.69,-172.80,177.69,-12.96,-0.22,12.86
12019,97.31,-177.44,169.25,-12.87,-1.10,12.75
12025,101.50,-182.54,146.69,-13.66,-0.98,13.20
12030,105.88,-187.06,140.19,-15.81,1.12,14.23
12038,107.38,-190.75,139.25,-16.62,2.24,14.16
12043,107.38,-193.98,139.25,-16.62,2.24,14.16
12048,107.19,-197.09,144.19,-17.11,2.61,13.74
12059,112.69,-201.25,166.69,-17.51,1.44,10.18
12068,111.50,-205.91,176.06,-16.79,-0.89,8.16
12096,113.56,-206.96,180.25,-15.53,-4.46,6.76
12103,113.56,-202.82,180.25,-15.53,-4.46,6.76
12108,120.69,-194.78,179.19,-15.78,-4.71,5.90
12113,110.06,-178.48,154.56,-15.91,-8.97,1.37
12118,109.56,-150.77,134.69,-15.59,-9.38,-1.19
12129,107.06,-118.03,102.56,-15.69,-10.00,-3.66
12137,107.06,-89.57,102.56,-15.69,-10.00,-3.66
12147,107.25,-68.64,68.69,-15.40,-11.00,-6.20
12158,109.00,-48.63,43.19,-14.39,-7.00,-6.03
12168,79.62,-20.39,10.44,-14.34,-3.30,-3.33
12178,79.62,14.28,10.44,-14.09,-2.15,-1.65
12195,51.12,43.77,-0.81,-14.09,-2.15,-1.65
12200,24.00,64.48,-9.19,-13.28,-1.34,-0.35
12208,-84.88,81.16,-17.19,1.94,7.00,14.10
12218,-84.88,95.25,-17.19,-1.16,9.91,23.40
12228,-101.25,101.42,-2.94,10.66,18.78,20.89
12237,-77.12,94.44,3.88,10.66,18.78,20.89
12247,-111.00,79.31,-46.88,10.84,12.22,13.65
12259,-142.94,71.80,-113.06,-4.87,-9.80,4.31
12268,-156.44,79.77,-133.38,-7.58,-9.46,7.82
12279,-144.38,92.49,-130.75,-5.61,-4.11,10.62
12293,-113.44,101.69,-116.12,-5.61,-4.11,10.62
12299,-96.81,108.28,-112.50,-3.43,-0.47,8.91
12308,-78.56,115.42,-106.56,-8.08,3.81,10.53
12318,-65.69,126.78,-93.50,-10.35,3.95,11.89
12329,-62.62,140.71,-79.81,-15.36,4.87,13.65
12337,-68.25,151.08,-71.19,-15.36,4.87,13.65
12346,-82.56,151.80,-60.25,-14.71,4.48,12.94
12359,-100.50,136.07,-47.38,-6.70,-1.38,11.40
12369,-97.25,102.47,-41.69,-6.38,1.19,10.00
12379,-89.50,64.64,-36.44,-7.69,1.91,-0.01
12388,-80.62,38.93,-30.44,-7.69,1.91,9.73
12399,-69.56,26.52,-25.81,-6.84,1.04,8.91
12409,-57.38,19.82,-21.94,-6.07,1.97,8.44
12419,-46.31,14.33,-20.31,-6.02,2.47,8.27
12429,-37.56,9.04,-19.19,-5.55,2.31,8.29
12436,-30.94,4.16,-16.56,-5.55,2.31,8.29
12446,-25.31,-0.04,-14.56,-5.19,1.73,8.35
12458,-22.62,-3.44,-13.88,-5.24,1.78,8.66
12469,-23.19,-6.15,-14.12,-5.46,1.73,8.50
12480,-16.38,-8.26,-15.25,-3.81,1.31,8.84
12501,-16.06,-9.65,-14.94,-3.52,1.01,8.75
12509,-21.69,-10.25,-13.50,-5.27,0.60,8.75
12516,-19.12,-10.02,-12.06,-3.71,0.52,8.71
12523,-15.44,-8.95,-9.75,-3.60,0.73,8.65
12531,-4.06,-7.43,-7.12,-5.40,0.66,8.62
12540,-1.56,-5.76,-6.06,-3.78,0.83,8.53
12549,-7.81,-4.07,-4.94,-3.78,0.83,8.53
12560,-6.44,-2.55,-4.12,-3.22,1.59,8.42
12571,-4.56,-1.08,-2.88,-5.93,0.84,8.44
12581,-4.56,0.44,-2.88,-3.80,1.42,8.34
12592,-3.88,1.58,-2.69,-3.80,1.42,8.34
12611,-4.06,2.23,-2.56,-5.44,1.12,8.43
12620,-4.25,2.80,-3.19,-5.23,1.42,8.35
12627,-3.56,3.38,-2.25,-5.38,0.84,8.31
12634,-3.19,3.91,-2.56,-5.61,0.85,8.25
12640,-3.19,4.46,-2.56,-5.61,0.85,8.25
12650,-2.69,4.94,-1.94,-5.60,0.80,8.27
12660,-2.69,5.22,-2.38,-5.53,0.88,8.40
12671,-2.25,5.35,-2.25,-5.26,1.09,8.20
12681,-1.81,5.23,-2.31,-5.39,0.80,8.08
12689,-1.94,4.82,-2.69,-5.39,0.80,8.08
12716,-1.62,4.38,-2.50,-5.15,0.92,8.45
12794,-1.50,4.21,-2.50,-5.28,0.84,8.17
12829,-1.19,4.24,-2.50,-5.53,0.60,8.15
12844,-1.12,4.35,-1.69,-5.25,1.01,8.21
12867,-0.56,4.44,-1.00,-5.25,1.01,8.21
12877,-0.62,4.39,-0.44,-5.40,0.83,8.15
12884,-0.50,4.23,-0.38,-5.38,0.88,8.15
12891,-0.44,4.10,-0.12,-5.36,0.97,8.25
12899,-0.19,4.05,-0.38,-5.55,0.82,8.10
12911,-0.19,4.02,-1.19,-5.55,0.82,8.10
12918,-0.25,3.88,-1.38,-5.47,1.03,8.26
12925,-0.88,3.64,-1.75,-5.53,1.01,8.04
12932,-0.94,3.44,-2.38,-5.32,0.78,8.06
12938,-1.56,3.36,-3.00,-5.37,0.80,8.08
12945,-1.75,3.37,-3.75,-5.37,0.80,8.08
12951,-2.38,3.39,-4.19,-5.53,0.93,8.16
12959,-2.56,3.30,-4.50,-5.25,0.98,8.33
12966,-3.19,3.08,-5.31,-3.70,1.11,8.07
12973,-3.81,2.85,-5.88,-5.61,1.01,8.22
12978,-4.31,2.66,-6.31,-5.61,1.01,8.22
12984,-5.25,2.43,-7.31,-5.53,1.03,7.99
12989,-6.00,2.08,-7.50,-5.43,1.22,8.32
12995,-6.88,1.71,-7.94,-3.80,1.23,8.23
13001,-7.94,1.60,-9.12,-5.32,0.85,8.39
13012,-1.00,2.01,-10.69,-5.32,0.85,8.39
13017,-1.62,3.14,-12.25,-5.14,0.77,8.35
13023,-2.06,5.14,-13.38,-3.27,0.36,7.97
13030,-2.19,8.16,-14.62,-3.69,0.47,8.47
13035,-10.06,12.30,-16.88,-5.51,1.46,9.37
13040,-8.75,17.30,-16.94,-5.51,1.46,9.37
13046,-8.69,22.25,-18.25,-4.42,0.71,8.30
13078,-9.19,27.08,-24.81,-4.28,1.44,7.86
13101,-10.88,33.38,-32.31,-5.82,0.46,8.16
13107,-11.88,42.20,-36.06,-4.26,1.50,8.04
13124,-13.38,53.61,-37.25,-5.17,1.12,8.68
13131,-14.06,68.17,-38.38,-5.92,1.04,8.62
13136,-14.75,85.16,-37.56,-5.35,0.76,9.08
13141,-14.56,103.55,-35.75,-5.55,0.69,9.03
13146,-18.25,124.24,-37.31,-5.59,0.95,8.09
13151,-24.06,145.80,-36.88,-5.84,1.29,8.80
13156,-31.56,164.08,-39.31,-5.95,1.19,8.31
13163,-40.81,178.16,-45.31,-1.20,-0.01,-0.01
13168,-50.06,190.52,-53.62,-6.59,1.73,8.83
13175,-62.69,203.44,-65.31,-6.83,1.43,8.77
13183,-69.19,218.56,-79.62,-8.05,1.36,10.63
13214,-64.19,236.84,-94.50,-8.84,1.44,11.44
13220,-58.44,256.90,-108.69,-9.90,0.49,11.32
13225,-46.50,275.26,-118.44,-11.26,-0.18,11.86
13230,-24.81,288.36,-125.06,-12.12,-0.18,11.90
13235,-3.31,294.05,-130.62,-11.71,1.30,9.97
13241,8.31,291.48,-135.69,-12.53,0.28,11.33
13246,28.50,278.11,-0.06,-13.94,0.21,15.69
13295,40.25,246.04,-123.88,-12.77,3.32,20.77
13326,36.44,188.59,-116.94,-4.59,7.77,14.55
13332,19.62,115.90,-116.75,-5.98,9.25,11.46
13339,-1.06,50.26,-15.38,-2.57,9.10,12.36
13344,-15.38,3.79,-95.00,-1.97,7.62,9.86
13349,-9.56,-25.03,-72.50,-1.99,6.32,9.64
13354,5.62,-42.13,-45.38,-2.26,6.56,9.31
13360,17.56,-53.96,-19.69,-2.32,6.87,9.32
13365,21.44,-65.33,0.94,-2.71,6.85,9.48
13375,21.94,-78.47,17.75,-4.06,5.42,10.36
13380,24.94,-94.31,31.62,-4.31,4.31,10.36
13386,33.50,-113.38,43.12,-4.50,3.20,10.12
13405,46.50,-134.96,53.06,-4.60,2.01,8.57
13429,58.81,-156.65,57.88,-4.44,1.97,7.46
13435,65.25,-175.52,59.81,-4.30,2.11,6.46
13450,65.38,-189.10,60.00,-3.72,1.92,5.61
13456,67.12,-195.31,60.44,-6.02,1.33,7.57
13540,74.56,-194.29,66.56,-7.15,1.49,8.36
13545,81.50,-190.64,75.12,-7.42,2.29,8.08
13551,81.25,-189.31,83.56,-7.25,3.04,7.47
13557,76.31,-190.16,91.56,-8.23,3.07,7.29
13561,72.75,-189.98,100.81,-8.41,2.78,7.32
13566,74.00,-186.83,113.38,-8.70,2.58,7.62
13574,78.62,-180.29,128.00,-8.96,2.36,8.13
13580,84.25,-170.43,142.00,-10.63,1.48,10.08
13585,88.38,-158.43,153.06,-11.87,0.97,10.97
13592,86.88,-148.49,157.94,-11.52,0.14,10.74
13600,82.44,-145.13,153.50,-11.11,-1.00,10.71
13605,81.81,-147.36,142.00,-11.47,-2.38,11.29
13614,83.94,-150.95,126.69,-11.23,-2.22,11.34
13624,87.94,-153.38,111.00,-11.65,-1.97,11.72
13630,93.56,-154.34,99.25,-12.69,-1.33,12.46
13635,98.25,-136.42,-0.06,-13.26,0.21,12.33
13641,101.25,-104.69,87.81,-12.75,0.58,11.47
13647,105.94,-104.55,88.19,-13.18,1.32,11.16
13652,103.81,-132.45,89.19,-14.11,1.97,10.59
13658,101.81,-154.29,94.94,-15.50,0.01,11.03
13663,109.62,-164.01,107.88,-14.75,0.57,9.82
13668,114.62,-166.28,122.12,-13.98,-1.19,7.82
13673,123.00,-164.16,132.62,-11.87,-6.09,6.04
13679,127.50,-156.79,135.38,-13.46,-5.57,6.03
13686,104.00,-143.61,124.38,-15.39,-5.12,5.58
13693,64.19,-128.13,110.19,-16.15,-2.08,-0.01
13701,22.19,-114.63,93.56,-14.88,-7.30,-2.35
13709,0.69,-102.59,72.88,-14.34,-10.25,-4.37
13716,12.44,-87.01,57.12,-13.62,-10.76,-5.81
13728,33.12,-63.39,46.81,-13.45,-8.75,-6.02
13735,31.62,-31.77,39.38,-13.29,-4.19,-3.48
13742,14.44,3.11,34.19,-13.37,-3.73,-2.02
13749,-18.31,34.96,30.31,-11.35,-0.55,0.12
13763,-82.31,69.26,-72.12,-2.92,-2.85,3.09
13771,-69.06,66.79,-109.69,-2.92,-2.85,3.09
13781,-79.06,78.48,-102.75,-6.09,-4.04,5.19
13792,-64.44,99.16,-76.81,-5.31,-2.84,7.61
13811,-54.12,116.21,-68.19,-5.33,0.00,10.30
13823,-52.50,123.46,-70.69,-4.87,1.35,9.85
13836,-46.00,123.37,-65.12,-5.54,3.52,10.09
13845,-34.19,122.08,-56.38,-5.76,4.16,11.08
13853,-33.00,122.60,-44.38,-8.96,3.82,11.32
13860,-33.50,123.37,-37.81,-8.06,1.20,11.47
13866,-39.31,121.37,-33.81,-8.25,0.66,11.18
13875,-35.81,113.36,-31.88,-5.49,0.82,10.66
13885,-36.81,99.27,-32.25,-5.98,1.69,10.19
13891,-37.12,83.64,-29.94,-9.34,3.29,10.98
13897,-47.12,70.19,-27.62,-12.04,2.69,11.04
13909,-50.06,55.51,-20.25,-6.33,2.21,8.87
13925,-48.38,36.11,-18.31,-6.75,1.75,9.16
13934,-44.00,18.00,-0.06,-6.85,1.78,9.54
13942,-36.62,6.85,-19.44,-5.79,1.34,8.79
13951,-30.62,1.43,-15.88,-0.67,-0.01,-0.01
13958,-25.56,-0.83,-11.62,-5.28,1.26,8.78
13968,-21.25,-1.49,-9.06,-5.10,1.28,8.64
13977,-17.31,-1.38,-7.06,-5.33,1.25,8.44
13989,-14.62,-1.07,-5.38,-4.94,1.38,8.61
13997,-12.25,-0.87,-4.06,-5.06,0.99,8.54
14010,-10.50,-0.67,-2.81,-4.89,1.18,8.44
14034,-9.19,-0.45,-2.06,-4.94,1.53,8.49
14040,-8.69,-0.33,-1.62,-4.87,1.69,8.36
14047,-8.75,-0.34,-1.69,-5.16,1.49,8.16
14051,-9.00,-0.46,-2.44,-5.16,1.88,8.49
14058,-9.19,-0.66,-2.62,-5.01,1.70,8.44
14068,-9.75,-0.97,-4.06,-5.16,1.68,8.58
14087,-9.19,-1.33,-4.44,-5.44,1.36,8.51
14095,-8.25,-1.59,-3.88,-5.28,1.10,8.54
14101,-7.06,-1.72,-3.62,-5.35,0.86,8.36
14112,-5.56,-1.61,-2.56,-5.39,0.78,8.64
14120,-4.31,-1.17,-1.81,-5.39,1.29,8.67
14130,-2.81,-0.50,-0.81,-4.74,1.20,8.34
14138,-2.75,0.37,-0.62,-5.44,1.03,8.67
14148,-2.50,1.40,-0.25,-5.07,1.21,8.34
14157,-3.00,2.40,-8.19,-5.22,1.03,8.29
14167,-3.50,3.26,-0.94,-5.18,1.42,8.28
14177,-4.44,3.90,-1.44,-5.28,1.48,8.14
14187,-5.12,4.16,-2.56,-5.25,1.44,8.13
14197,-6.62,4.06,-3.56,-5.59,1.09,8.06
14207,-7.44,3.67,-4.25,-5.14,1.24,8.34
14216,-7.06,3.05,-4.25,-5.18,1.20,8.19
14237,-6.62,2.31,-4.69,-5.24,1.09,8.40
14244,-5.69,1.65,-3.94,-5.18,1.03,8.48
14252,-4.94,1.11,-3.81,-5.11,1.15,8.37
14266,-4.81,0.79,-0.06,-5.54,0.69,8.30
14272,-3.62,0.78,-3.06,-5.16,1.15,8.39
14278,-3.19,0.94,-2.62,-5.32,0.93,8.19
14288,-2.94,1.25,-2.69,-5.38,0.99,8.36
14296,-2.69,1.60,-2.44,-5.20,0.89,8.31
14307,-2.31,1.82,-2.25,-5.28,1.06,8.27
14317,-2.31,2.00,-2.44,-5.52,0.94,8.12
14327,-2.00,2.25,-2.31,-5.09,1.16,8.32
14338,-2.06,2.39,-2.12,-5.02,0.91,8.26
14347,-2.06,2.39,-2.50,-4.93,1.26,8.35
14358,-1.69,2.29,-2.44,-4.96,1.16,8.44
14367,-1.75,2.14,-2.75,-5.13,1.20,8.24
14379,-2.19,2.15,-3.19,-5.34,0.82,8.26
14386,-1.62,2.35,-2.88,-5.13,1.10,8.21
14397,-2.19,2.60,-3.25,-5.37,0.96,8.29
14407,-2.06,2.83,-3.44,-4.95,1.17,8.28
14418,-2.56,3.00,-3.94,-5.52,0.87,8.25
14437,-2.62,3.11,-4.00,-5.12,1.09,8.27
14444,-3.06,3.17,-4.44,-5.44,1.09,8.30
14450,-3.56,3.15,-4.94,-5.12,1.14,8.16
14457,-4.56,3.04,-5.81,-5.22,1.20,8.17
14467,-5.06,2.94,-6.31,-5.06,1.45,8.41
14476,-5.94,2.96,-7.44,-5.01,1.06,8.24
14487,-7.00,2.71,-0.06,-5.33,0.85,8.24
14496,-7.44,2.38,-10.06,-5.03,1.09,8.41
14506,-8.12,3.28,-11.12,-5.19,0.89,8.41
14516,-8.94,5.44,-12.56,-4.88,0.91,8.43
14526,-9.50,7.90,-14.06,-5.18,1.17,8.20
14538,-10.25,10.59,-15.25,-4.98,0.51,7.92
14552,-11.00,13.95,-17.75,-4.84,0.29,8.89
14558,-10.25,18.00,-19.44,-5.06,1.99,9.22
14572,-9.56,22.18,-19.94,-5.95,2.22,8.98
14577,-10.00,26.34,-25.94,-4.62,1.17,7.73
14588,-9.62,31.53,-31.56,-5.35,0.91,8.04
14601,-1.19,38.99,-36.75,-3.12,0.90,8.07
14610,-0.88,48.68,-39.50,-2.78,1.32,8.21
14622,-1.75,60.44,-39.69,-6.01,0.73,8.58
14633,-1.75,74.16,-38.50,-3.74,0.79,8.94
14644,-2.44,89.05,-36.25,-3.21,0.49,8.87
14652,-3.00,105.05,-33.56,-3.76,0.93,8.49
14662,-5.81,122.75,-32.25,-5.81,0.21,8.34
14670,-18.31,141.04,-32.19,-5.75,0.80,8.60
14709,-23.19,156.72,-32.44,-6.39,1.24,8.47
14719,-21.38,168.21,-36.19,-6.02,1.22,7.97
14750,-32.69,178.20,-42.06,-6.83,1.53,7.64
14758,-38.69,189.78,-48.88,-6.50,1.08,8.20
14766,-44.62,203.76,-58.81,-7.09,0.64,8.89
14772,-43.50,220.42,-69.56,-7.86,0.63,10.22
14779,-34.19,239.88,-79.88,-8.86,0.45,10.45
14784,-24.31,260.96,-88.31,-9.91,0.04,10.70
14790,-10.50,281.36,-94.50,-10.83,-0.36,11.36
14795,11.19,298.55,-99.75,-13.55,0.76,11.92
14800,32.44,309.44,-104.62,-13.03,1.61,10.90
14807,38.81,310.23,-112.00,-13.32,1.63,9.97
14812,39.81,297.97,-116.56,-13.35,0.42,11.22
14817,44.44,247.32,-0.06,-10.68,4.96,19.05
14822,34.44,159.54,-111.19,-8.83,5.78,19.50
14828,23.06,90.90,-105.50,-2.98,7.52,14.47
14847,4.94,52.35,-107.06,-6.63,8.33,13.09
14856,-13.31,21.55,-97.38,-1.61,7.36,9.99
14861,-23.88,-4.42,-78.56,-2.24,6.35,10.21
14867,-18.81,-25.05,-54.88,-1.84,6.04,9.96
14876,-7.75,-40.67,-28.75,-2.26,6.00,9.81
14887,1.12,-54.15,-5.69,-2.81,5.51,9.84
14896,7.12,-68.39,12.12,-3.18,5.17,9.95
14907,10.06,-84.88,24.50,-3.81,4.45,10.21
14916,14.81,-103.88,33.44,-4.53,3.63,10.44
14929,23.50,-106.25,-0.06,-5.69,2.31,10.39
14936,34.81,-95.06,43.69,-5.98,2.17,9.72
14949,43.06,-115.79,43.25,-5.87,2.36,8.69
14959,46.62,-165.69,41.12,-5.60,2.52,7.67
14966,49.44,-208.43,39.69,-5.73,2.45,6.77
14976,55.19,-233.21,42.00,-6.14,2.64,6.95
14989,63.25,-242.44,48.25,-6.73,2.95,7.32
15006,69.81,-242.39,56.62,-7.79,3.78,7.27
15036,73.06,-238.83,67.19,-8.00,4.17,6.96
15044,74.44,-208.05,-0.06,-7.91,4.33,6.45
15053,75.00,-154.25,95.25,-8.25,4.40,6.58
15062,75.06,-140.71,115.12,-8.59,3.51,7.61
15067,76.75,-164.92,133.31,-9.65,2.55,9.31
15073,84.75,-180.25,148.44,-11.94,1.81,11.58
15077,92.75,-178.92,160.06,-12.61,1.26,12.22
15083,90.69,-171.65,161.25,-11.90,-0.37,11.38
15088,85.88,-167.98,151.88,-11.79,-1.53,11.26
15097,85.06,-168.38,138.31,-12.10,-2.16,11.66
15107,91.00,-169.33,125.12,-12.65,-1.94,12.25
15125,97.56,-169.11,113.94,-13.61,-0.41,12.73
15131,102.81,-168.33,106.62,-14.35,0.19,12.98
15138,109.06,-168.19,105.50,-14.69,0.87,12.69
15155,114.50,-169.40,109.75,-14.90,1.62,12.28
15164,118.12,-171.56,118.00,-15.52,2.09,11.12
15169,118.44,-173.53,128.88,-15.62,1.59,10.27
15177,115.19,-174.42,140.56,-15.08,-1.49,8.61
15187,117.44,-173.48,150.50,-13.73,-5.42,7.64
15197,124.25,-169.01,153.94,-14.71,321.64,6.78
15209,117.50,-159.65,147.00,-16.16,-5.81,5.65
15217,98.00,-147.24,133.81,-16.42,-5.00,3.11
15227,66.06,-135.28,110.62,-15.69,-5.72,-0.23
15237,42.25,-123.88,81.31,-14.24,-10.43,-5.20
15257,43.75,-109.03,56.62,-13.73,-10.89,-6.65
15264,56.81,-86.75,38.19,-13.33,-9.26,-7.22
15270,57.50,-56.67,21.94,-13.89,-4.90,-5.48
15278,39.12,-22.00,7.56,-14.15,-3.61,-3.79
15287,12.44,12.31,-3.75,-13.91,-3.07,-2.17
15297,-9.75,41.86,-12.00,-12.29,0.12,-1.17
15337,-56.88,65.53,-19.06,-2.58,2.16,9.48
15359,-102.81,82.57,-19.56,-1.95,4.45,20.02
15367,-73.56,89.77,-13.38,7.76,17.06,22.31
15373,-81.75,87.10,-34.56,8.32,14.26,18.95
15379,-122.81,82.54,-88.94,0.11,-5.03,2.63
15384,-135.50,87.08,-108.38,-3.78,-6.41,2.81
15391,-127.12,102.85,-85.38,-7.97,-7.73,6.52
15398,-102.12,122.46,-67.94,-8.58,-6.76,11.95
15406,-87.69,136.53,-77.00,-5.12,-3.71,11.91
15414,-64.88,140.43,-84.62,-5.42,2.19,10.79
15425,-37.56,138.78,-73.19,-8.77,5.97,11.30
15436,-33.81,138.11,-53.56,-10.36,6.25,11.21
15450,-36.69,139.01,-37.12,-8.44,1.17,11.33
15463,-38.06,139.83,-33.06,-10.79,1.21,12.79
15471,-51.94,135.86,-32.56,-8.61,-0.25,11.52
15479,-52.88,119.66,-36.62,-10.87,2.88,12.56
15486,-70.06,90.32,-34.12,-5.62,1.73,9.39
15493,-65.94,55.53,-27.38,-6.07,1.85,9.78
15500,-54.25,28.10,-22.12,-5.77,1.17,9.47
15507,-52.62,14.37,-18.56,-5.70,1.31,9.35
15514,-34.38,8.80,-16.38,-6.03,1.60,9.20
15523,-34.19,5.06,-14.12,-5.85,1.61,8.64
15530,-19.00,1.53,-11.94,-5.62,1.92,8.73
15539,-21.19,-1.28,-8.50,-3.74,1.49,8.48
15550,-17.88,-2.85,-6.62,-5.32,1.40,8.39
15559,-7.06,-3.28,-5.62,-5.32,1.47,8.40
15570,-5.44,-3.33,-5.00,-3.76,1.62,8.40
15579,-4.88,-3.57,-4.50,-3.63,1.06,8.45
15590,-4.12,-3.87,-4.50,-3.82,0.89,8.60
15597,-10.75,-3.96,-3.50,-5.02,0.95,8.62
15607,-10.75,-3.84,-3.50,-4.96,1.08,8.64
15618,-8.62,-3.53,-2.62,-5.05,0.86,8.52
15627,-7.31,-2.99,-2.06,-5.16,1.19,8.56
15638,-6.50,-2.37,-1.88,-5.08,1.16,8.49
15647,-5.62,-1.80,-1.75,-5.17,1.11,8.55
15663,-4.62,-1.30,-1.50,-5.21,1.13,8.47
15687,-3.69,-0.90,-1.44,-5.31,0.95,8.43
15693,-3.38,-0.58,-1.38,-5.55,0.88,8.36
15698,-2.88,-0.16,-1.56,-5.45,1.05,8.36
15704,-1.38,0.40,-0.75,-5.39,1.27,8.51
15709,-1.31,1.07,-1.50,-5.07,1.28,8.48
15718,-1.19,1.77,-1.56,-5.47,0.91,8.28
15735,-1.50,2.39,-1.75,-5.02,1.06,8.43
15746,-1.50,2.98,-1.44,-5.44,1.05,8.12
15767,-1.50,3.48,-1.44,-5.13,0.95,8.33
15774,-1.50,3.83,-2.44,-5.07,1.35,8.33
15779,-1.88,4.04,-3.31,-5.35,1.26,8.14
15784,-2.62,4.06,-3.69,-5.22,0.74,8.15
15790,-2.81,3.81,-4.56,-5.29,1.13,8.25
15797,-2.81,3.42,-4.56,-5.42,1.01,8.05
15807,-2.44,3.08,-4.50,-5.39,1.04,8.32
15817,-1.81,2.86,-4.12,-5.40,0.95,8.20
15827,-1.38,2.72,-3.94,-5.25,1.04,8.44
15838,-1.06,2.73,-3.50,-5.59,0.78,8.26
15847,-1.06,2.90,-3.50,-4.92,0.91,8.39
15857,-0.56,3.08,-3.62,-5.61,0.92,8.14
15868,-0.06,3.36,-3.12,-5.42,0.89,8.23
15878,1.00,3.92,-2.44,-4.93,1.19,8.19
15889,0.62,4.56,-2.12,-5.36,0.92,8.14
15899,0.62,5.08,-2.12,-5.24,1.04,8.20
15912,0.50,5.37,-2.50,-5.23,1.07,8.26
15918,0.31,5.40,-2.75,-5.51,0.99,8.08
15928,0.06,5.29,-3.44,-5.23,1.12,8.28
15938,-0.06,5.12,-3.44,-5.21,1.05,8.25
15947,-0.06,4.95,-3.44,-5.13,1.11,8.33
15957,-0.62,4.80,-4.12,-5.28,0.91,8.22
15968,-1.06,4.63,-5.12,-4.95,1.43,8.16
15980,-1.00,4.40,-5.38,-5.74,0.78,8.15
15988,-1.88,4.23,-6.38,-5.35,1.25,8.16
15997,-1.88,4.24,-6.38,-5.10,0.87,8.19
16007,-1.62,4.27,-5.69,-5.47,1.28,7.99
16026,-1.88,4.30,-6.31,-5.03,1.51,8.22
16037,-2.56,4.52,-6.88,-5.42,1.06,8.13
16043,-3.88,4.94,-8.25,-5.33,1.18,8.02
16048,-3.88,5.35,-8.25,-5.21,1.11,8.28
16057,-4.88,5.73,-8.75,-5.10,1.21,8.35
16067,-5.75,6.33,-9.94,-5.19,0.88,8.29
16078,-7.12,7.68,-13.25,-5.19,0.66,8.43
16088,-7.06,10.23,-15.19,-5.12,0.88,8.14
16097,-7.06,13.19,-15.19,-5.12,0.88,8.14
16107,-7.62,15.71,-17.00,-5.29,1.51,7.37
16118,-7.25,19.35,-23.00,-5.80,2.50,9.18
16128,-6.44,25.60,-24.12,-4.97,1.01,8.35
16138,-6.81,27.90,-0.06,-4.37,1.41,8.02
16147,-6.81,24.95,-29.06,-4.88,0.67,7.82
16158,-6.75,29.39,-36.38,-4.15,0.86,8.35
16170,-7.19,45.76,-42.38,-4.85,1.08,8.69
16178,-7.38,68.82,-41.44,-5.58,1.06,8.83
16188,-9.25,93.26,-40.31,-5.83,0.54,8.77
16197,-9.25,113.25,-40.31,-5.83,0.54,8.77
16207,-11.44,126.41,-39.12,-5.60,1.01,8.63
16218,-20.12,138.33,2011.19,-6.73,0.72,8.20
16228,-22.38,153.89,-38.75,-6.15,0.91,7.82
16238,-22.38,170.19,-44.75,-7.08,0.54,8.23
16247,-22.38,183.48,-44.75,-7.08,0.54,8.23
16257,-17.81,193.32,-53.56,-6.95,0.68,8.58
16270,-7.56,176.78,-0.06,-7.95,1.40,8.85
16279,-11.94,143.45,-87.75,-9.15,1.99,9.80
16288,-24.38,158.57,-100.69,-8.88,3.23,9.93
16298,-24.38,214.44,-100.69,-8.88,3.23,-0.01
16309,-33.88,258.94,-115.31,-8.64,1.39,10.15
16321,-55.69,282.76,-139.62,-11.17,1.17,10.10
16330,-68.38,292.55,-149.62,-10.31,1.11,8.35
16340,-66.12,294.08,-161.12,-10.35,1.49,7.18
16349,-74.12,291.92,-161.12,-11.35,0.00,6.75
16359,-86.69,289.37,-171.25,-10.95,-1.83,6.54
16372,-68.62,286.16,-162.62,-10.42,-1.76,7.39
16380,-36.44,278.95,-146.00,-11.02,-1.35,11.82
16394,12.50,262.12,-119.44,-8.52,1.50,17.57
16404,12.50,236.52,-119.44,-18.70,6.40,20.11
16412,40.62,208.63,-105.56,-6.28,9.36,14.94
16423,46.50,167.69,-57.06,-3.47,9.32,10.79
16431,14.81,105.90,-34.31,-2.83,5.00,9.00
16441,-0.56,44.34,-11.38,-2.88,3.20,8.91
16449,-0.56,3.29,-11.38,-2.61,2.08,8.71
16459,-5.38,-16.89,6.44,-1.16,1.66,8.55
16471,27.00,-28.62,22.56,-3.81,1.37,9.30
16480,30.44,-43.01,23.38,-5.64,1.50,10.74
16491,44.50,-61.28,26.25,-8.82,1.58,13.12
16499,44.50,-79.33,26.25,-10.35,1.87,14.86
16509,61.44,-96.13,34.62,-13.53,2.47,14.01
16520,89.56,-128.37,58.44,-11.02,2.32,11.17
16530,90.06,-189.92,68.19,-8.82,1.61,7.97
16540,90.56,-261.96,74.19,-8.29,0.97,5.63
16549,90.56,-316.83,74.19,-5.32,-0.55,3.66
16559,93.19,-345.52,75.44,-6.08,-0.30,4.09
16576,104.44,-354.12,70.00,-5.41,0.97,3.93
16584,111.56,-350.10,73.75,-6.34,2.55,4.93
16592,121.31,-337.67,83.50,-8.35,4.06,6.48
16601,121.31,-322.67,83.50,-8.61,3.61,6.92
16611,121.00,-310.87,101.06,-8.11,2.81,6.96
16622,125.06,-300.83,142.38,-8.20,2.07,7.36
16630,143.94,-287.64,157.69,-7.78,0.95,7.45
16646,141.69,-270.00,166.50,-7.99,0.83,8.39
16654,141.69,-251.25,166.50,-10.25,0.73,12.34
16661,143.75,-233.89,171.75,-13.48,0.90,15.36
16670,155.00,-215.99,185.06,-16.50,1.92,16.09
16684,142.06,-201.62,187.44,-15.46,2.14,15.38
16696,121.38,-197.11,187.50,-18.22,2.23,14.84
16703,121.38,-199.75,187.50,-21.65,2.65,14.07
16710,121.12,-203.63,188.56,-21.54,2.52,12.53
16720,111.56,-206.35,206.81,-21.23,-0.16,10.04
16730,91.12,-207.75,213.75,-21.62,-3.64,8.84
16744,92.12,-207.06,220.31,-20.64,-4.31,3.28
16751,92.12,-204.44,220.31,-18.00,-6.66,0.05
16759,94.12,-200.25,224.94,-18.41,-11.13,-2.53
16775,88.44,-190.85,216.62,-18.59,-12.62,-5.22
16783,91.19,-171.32,199.06,-19.20,-14.80,-10.31
16797,94.31,-141.17,170.62,-18.37,-14.93,-11.82
16804,92.56,-104.40,132.56,-16.26,-13.33,-11.77
16811,94.94,-65.13,95.19,-16.09,-10.66,-10.08
16820,71.12,-25.00,59.69,-15.64,0.57,-6.38
16831,41.25,15.03,25.06,-13.57,-3.16,2.03
16841,-19.31,53.51,-10.50,-2.61,-3.15,15.44
16849,-100.12,85.44,-30.62,-2.61,-3.15,15.44
16859,-65.50,101.44,-31.50,1.57,11.65,26.84
16871,-54.62,98.22,-48.44,1.45,-3.01,3.34
16883,-103.25,85.40,-106.38,-1.02,-3.90,-0.16
16893,-104.62,76.96,-138.06,-3.31,-3.58,2.14
16903,-99.12,82.80,-111.31,-3.31,-3.58,2.14
16910,-82.38,104.64,-80.06,-7.75,-2.04,13.67
16920,-69.56,131.16,-67.81,-8.47,-2.62,11.48
16930,-66.56,149.26,-78.94,-6.38,4.14,10.43
16942,-50.25,153.89,-80.56,-10.38,5.41,11.89
16950,-35.50,146.89,-68.00,-10.38,5.41,11.89
16959,-21.38,137.28,-52.44,-11.14,4.83,11.70
16971,-34.62,129.94,-40.56,-10.70,2.72,10.82
16989,-49.06,120.48,-32.88,-6.18,1.90,10.70
16996,-66.19,103.54,-28.94,-5.53,1.84,10.99
17005,-68.19,78.03,-27.75,-5.53,1.84,10.99
17012,-68.88,48.45,-23.81,-5.59,0.25,9.59
17032,-51.75,25.10,-22.19,-5.95,1.72,8.97
17056,-48.56,14.24,-18.38,-5.86,1.53,8.52
17063,-38.75,10.27,-14.62,-5.93,1.80,8.74
17069,-23.62,7.68,-13.44,-5.93,1.80,8.74
17076,-17.44,5.40,-11.62,-5.27,1.80,8.29
17085,-20.56,2.93,-9.56,-5.21,1.60,8.35
17092,-17.50,0.78,-7.81,-3.82,1.63,8.28
17099,-15.31,-0.51,-6.00,-5.29,1.94,8.21
17108,-6.12,-1.04,-5.12,-5.29,1.94,8.21
17114,-6.88,-1.18,-6.19,-3.82,1.93,8.20
17146,-6.06,-1.29,-6.12,-5.18,1.78,8.02
17179,-5.75,-1.66,-6.69,-3.76,2.13,8.38
17209,-5.69,-2.36,-7.00,-5.25,1.83,8.31
17216,-5.75,-3.37,-6.88,-5.25,1.83,8.31
17223,-7.56,-4.54,-8.44,-5.71,1.55,8.44
17229,-16.31,-5.45,-9.38,-5.17,1.45,8.48
17239,-7.94,-5.96,-9.50,-5.23,1.21,8.60
17246,-7.81,-6.17,-9.88,-5.18,1.13,8.58
17256,-7.00,-6.01,-9.88,-5.18,1.13,8.58
17274,-5.31,-5.48,-8.88,-5.22,1.15,8.59
17371,-4.00,-4.68,-8.12,-5.34,1.31,8.71
17389,-2.69,-3.53,-7.00,-3.67,1.15,8.61
17399,-1.31,-1.99,-5.81,-5.24,1.01,8.51
17407,-0.31,-0.37,-5.31,-5.24,1.01,8.51
17417,-7.69,1.09,-4.75,-3.40,1.40,8.40
17423,-6.75,2.28,-3.75,-5.51,1.35,8.23
17430,-7.25,3.24,-4.31,-5.61,1.05,8.00
17439,-6.06,4.06,-4.12,-5.56,1.32,8.22
17446,-5.88,4.59,-4.44,-5.56,1.32,8.22
17453,-5.94,4.69,-4.81,-5.15,1.04,8.16
17463,-6.31,4.41,-5.38,-5.82,0.96,8.21
17491,-6.12,3.85,-5.81,-5.45,1.21,8.18
17505,-5.88,3.17,-5.50,-5.48,0.86,8.23
17514,-5.62,2.65,-5.25,-5.48,0.86,8.23
17522,-5.25,2.36,-5.12,-5.50,1.05,8.28
17529,-4.44,2.25,-4.44,-5.56,0.63,8.30
17607,-4.06,2.27,-4.31,-5.63,0.59,8.27
17625,-3.00,2.43,-3.19,-5.43,0.77,8.16
17633,-2.31,2.77,-2.56,-5.43,0.77,8.16
17646,-1.38,3.21,-1.50,-5.49,0.80,8.31
17660,-1.00,3.61,-1.12,-5.43,1.00,8.13
17669,-1.00,3.90,-0.06,-5.40,0.97,8.14
17680,-1.06,4.07,-1.25,-5.47,0.88,8.06
17688,-0.94,4.12,-1.25,-5.47,0.88,8.06
17696,-0.88,4.11,-2.06,-5.21,0.97,8.23
17708,-0.69,4.09,-2.62,-5.31,0.88,8.28
17725,-0.81,4.09,-3.31,-5.46,1.26,8.20
17735,-0.75,4.11,-3.50,-5.25,1.28,8.01
17742,-1.50,4.03,-4.50,-5.25,1.28,8.01
17750,-2.56,3.83,-5.50,-5.53,1.21,8.04
17758,-3.75,3.51,-6.56,-5.13,1.51,8.11
17765,-4.88,3.02,-7.38,-5.42,1.15,8.15
17773,-6.31,2.40,-8.88,-5.42,1.15,8.15
17946,-7.19,1.92,-8.56,-5.48,0.90,8.33
17954,-7.56,1.85,-8.00,-5.26,1.14,8.26
17960,-0.19,2.24,-7.75,-3.82,0.91,8.37
17967,-8.81,3.11,-7.88,-5.14,0.89,8.26
17976,-1.56,4.56,-9.62,-5.14,0.89,8.26
18020,-2.06,6.74,-11.69,-5.21,-0.02,7.74
18028,-2.81,10.04,-14.69,-3.62,0.89,8.47
18035,-2.00,14.78,-17.06,-5.18,1.89,9.60
18042,-0.44,20.41,-16.25,-6.19,2.09,9.09
18048,-7.88,26.08,-19.38,-3.81,0.61,8.22
18055,-7.38,32.21,-24.81,-3.81,0.61,8.22
18063,-0.38,40.30,-30.81,-3.39,1.61,8.09
18069,-1.69,50.90,-33.88,-3.42,1.21,8.45
18075,-2.50,64.11,-33.44,-5.46,0.86,8.94
18082,-13.12,79.99,-34.06,-5.46,0.86,8.94
18090,-6.62,97.09,-33.31,-2.93,0.61,8.96
18096,-7.56,114.89,-33.38,-5.61,1.46,8.70
18114,-22.06,134.31,-36.50,-6.31,1.51,8.73
18122,-20.81,154.00,-41.62,-5.85,1.87,8.43
18129,-36.00,171.40,-49.56,-6.42,1.47,8.44
18135,-35.00,186.45,-61.38,-5.70,1.03,9.00
18143,-48.62,202.03,-75.00,-7.95,1.21,11.06
18149,-51.75,220.14,-88.69,-5.83,2.38,10.21
18157,-54.00,240.13,-103.19,-6.95,2.24,10.02
18163,-53.12,260.37,-116.06,-8.46,0.59,10.02
18169,-53.44,279.69,-125.25,-8.31,0.25,9.83
18176,-48.75,297.50,-132.12,-10.12,0.56,9.97
18184,-53.62,312.78,-139.56,-8.64,0.60,8.67
18191,-54.44,323.94,-149.31,-9.30,0.84,5.58
18198,-54.12,330.63,-161.69,-8.66,0.05,5.74
18218,-71.38,334.45,-171.06,-10.31,-1.10,5.06
18225,-55.38,337.12,-169.88,-8.86,-1.69,5.06
18231,-51.56,339.24,-166.88,-10.56,-2.95,5.52
18238,-19.31,339.65,-153.50,-10.61,-1.43,5.46
18247,30.38,335.57,-137.44,-10.96,0.44,7.20
18254,46.31,322.80,-119.31,-10.76,4.89,11.48
18260,56.25,298.01,-91.06,-20.93,14.50,20.48
18267,40.81,256.05,-32.25,-12.92,14.94,16.17
18273,2.94,188.27,15.69,-13.41,11.96,15.09
18280,-50.50,97.95,41.31,-10.38,7.56,12.84
18288,-87.31,3.38,53.75,-5.47,-0.18,9.90
18294,-96.56,-78.62,58.88,-5.38,-2.53,8.54
18301,-67.19,-140.53,60.44,-3.86,-3.83,7.16
18318,-24.94,-182.29,54.88,-2.93,-3.93,6.11
18334,15.88,-207.05,43.31,-3.52,-1.36,5.54
18341,45.12,-219.00,31.75,-4.48,0.27,5.86
18347,59.19,-223.64,23.00,-5.94,1.35,6.69
18357,74.75,-226.96,23.31,-6.36,2.15,7.58
18364,73.44,-233.89,33.75,-9.67,3.35,8.34
18372,78.38,-247.46,50.50,-8.64,3.29,7.99
18378,90.56,-267.84,69.38,-8.10,3.09,6.96
18385,91.69,-291.82,85.81,-7.84,2.10,5.63
18391,90.81,-314.11,97.69,-8.37,1.38,6.06
18399,95.44,-330.47,105.62,-7.82,1.07,6.08
18406,94.56,-340.86,114.12,-5.54,1.08,6.16
18417,110.31,-345.09,121.50,-6.37,0.82,7.60
18424,110.12,-340.07,128.75,-6.04,0.21,7.75
18446,121.75,-327.15,136.50,-8.21,-0.11,8.71
18453,141.94,-311.32,142.50,-8.53,-0.40,9.03
18461,153.00,-295.43,146.75,-7.97,-0.58,8.50
18467,159.06,-279.64,149.56,-8.17,-0.79,9.85
18474,154.25,-260.20,150.88,-13.07,-0.80,14.60
18481,172.50,-233.32,158.12,-15.72,-0.34,17.45
18488,174.31,-206.70,167.69,-18.82,2.01,17.63
18495,157.62,-194.30,170.81,-19.73,2.19,16.58
18501,126.31,-197.88,170.56,-21.15,1.75,15.35
18507,109.06,-208.49,173.31,-22.69,0.52,14.22
18522,111.00,-218.54,183.69,-23.29,-1.34,10.07
18529,92.44,-224.90,191.88,-21.67,-2.53,7.93
18535,75.00,-227.05,195.88,-22.09,-3.77,5.23
18543,72.06,-224.92,199.94,-18.44,-4.76,1.01
18552,62.81,-216.50,192.00,-18.02,-13.61,-5.08
18560,58.44,-198.19,172.31,-18.45,-15.78,-7.68
18566,74.75,-168.94,146.50,-18.86,-16.18,-10.51
18575,89.56,-131.73,113.50,-18.39,-15.54,-12.69
18603,75.19,-90.73,74.69,-15.62,-12.70,-12.45
18610,45.00,-48.21,33.62,-15.69,-9.22,-10.67
18636,9.19,-4.75,-7.94,-16.48,-8.15,-8.46
18644,-44.50,38.49,-50.56,-8.62,-6.56,3.26
18652,-37.81,73.66,-65.56,6.72,18.13,28.40
18659,-7.12,88.79,-80.94,11.78,19.51,23.35
18666,-50.25,85.54,-125.38,-0.69,8.01,11.27
18672,-70.38,76.66,-173.56,-3.27,0.99,-3.38
18679,-71.88,75.77,-152.44,-5.28,-0.98,1.33
18685,-70.12,93.86,-103.12,-8.07,1.64,10.81
18695,-48.75,125.63,-64.69,-8.87,1.60,14.09
18702,-53.75,155.13,-61.69,-6.20,-3.62,12.41
18708,-55.81,167.52,-66.88,-5.15,-0.89,12.35
18731,-37.38,156.65,-62.12,-8.51,1.54,12.67
18745,-18.44,134.90,-56.00,-9.01,3.42,11.57
18751,-16.25,117.47,-46.75,-8.49,4.88,10.62
18758,-23.25,106.73,-39.75,-8.44,4.31,10.40
18770,-37.25,98.51,-34.12,-11.16,4.11,12.07
18778,-64.69,87.72,-31.25,-7.99,0.70,10.34
18788,-65.88,68.40,-27.81,-5.57,2.24,9.72
18805,-52.81,42.83,-24.06,-5.62,1.87,9.07
18812,-53.31,22.94,-20.69,-5.40,1.72,8.92
18826,-37.44,12.85,-19.19,-6.17,1.78,9.06
18838,-37.38,7.67,-17.94,-6.03,1.77,8.96
18856,-22.50,3.97,-16.00,-5.30,1.84,8.59
18863,-16.62,1.09,-12.06,-3.79,1.87,8.55
18871,-20.75,-0.59,-9.25,-3.69,1.54,8.43
18877,-17.94,-0.82,-7.56,-4.98,1.70,8.68
18884,-16.19,-0.11,-6.19,-3.60,1.43,8.29
18890,-7.12,0.59,-5.50,-5.29,1.60,8.23
18900,-6.94,0.82,-5.56,-5.28,1.22,8.23
18907,-5.44,0.58,-4.94,-3.67,1.57,8.55
18915,-3.62,-0.13,-4.81,-5.19,1.65,8.46
18934,-2.94,-1.17,-4.56,-5.58,1.62,8.37
18942,-2.81,-2.08,-4.50,-5.16,1.56,8.35
18955,-2.50,-2.59,-5.12,-5.57,1.30,8.42
18963,-2.94,-2.80,-5.62,-5.28,1.31,8.35
18971,-2.50,-2.77,-5.75,-5.48,1.15,8.50
18977,-1.94,-2.55,-5.56,-5.77,1.20,8.46
18983,-1.62,-2.16,-5.62,-5.13,1.35,8.35
18989,-0.31,-1.64,-4.94,-3.65,1.12,8.44
18996,-7.06,-0.98,-4.06,-5.74,1.08,8.46
19002,-6.25,-0.05,-3.94,-5.48,1.06,8.44
19009,-5.38,1.04,-3.00,-3.78,0.88,8.51
19016,-4.38,2.10,-2.62,-3.84,1.14,8.44
19033,-3.69,3.02,-2.44,-5.47,0.91,8.03
19039,-3.56,3.82,-2.75,-3.73,1.48,8.27
19047,-2.69,4.53,-2.38,-5.33,1.32,8.06
19057,-3.44,4.99,-3.12,-5.43,1.26,8.18
19065,-4.12,5.03,-3.88,-5.28,1.16,8.17
19074,-4.44,4.69,-4.56,-5.54,1.19,8.00
19084,-4.69,4.17,-5.25,-5.13,1.20,8.34
19160,-4.56,3.70,-5.00,-5.38,1.20,8.18
19179,-4.56,3.42,-5.44,-5.59,1.12,8.19
19187,-3.94,3.32,-5.19,-5.53,0.76,8.32
19206,-4.19,3.32,-5.50,-5.31,1.17,8.10
19220,-4.06,3.44,-5.50,-5.23,1.00,8.30
19229,-3.88,3.63,-5.19,-5.50,0.84,8.22
19243,-3.69,3.92,-5.06,-5.31,0.78,8.15
19252,-3.19,4.30,-4.06,-5.15,1.11,8.39
19260,-2.25,4.68,-3.38,-5.60,0.90,8.15
19267,-2.31,5.02,-3.38,-5.25,0.85,8.20
19281,-1.81,5.32,-2.88,-5.66,0.88,8.18
19299,-1.38,5.58,-2.75,-5.36,1.07,8.19
19312,-0.81,5.86,-2.38,-5.55,0.82,8.17
19318,-0.69,6.15,-2.69,-5.40,0.95,8.27
19325,-0.31,6.44,-2.88,-5.38,0.86,8.25
19341,-0.50,6.71,-3.62,-3.81,1.25,8.26
19347,-0.50,6.82,-3.81,-5.50,1.11,8.08
19354,-0.88,6.77,-4.75,-5.38,1.15,8.22
19365,-1.06,6.66,-4.94,-5.22,1.16,8.26
19377,-1.50,6.51,-5.00,-5.43,1.29,8.19
19390,-2.25,6.29,-6.00,-5.55,1.10,8.07
19403,-2.69,6.05,-6.56,-5.27,1.08,8.22
19410,-3.00,5.89,-6.62,-5.63,1.01,8.14
19420,-3.81,5.98,-7.69,-5.21,1.29,8.18
19427,-4.06,6.41,-8.38,-5.33,0.98,8.34
19442,-4.88,7.31,-9.75,-3.57,1.27,8.18
19450,-5.25,8.80,-11.00,-5.61,0.71,8.36
19466,-5.75,10.88,-13.75,-5.14,0.98,8.01
19473,-5.81,13.65,-15.69,-5.71,1.70,7.46
19480,-5.50,17.32,-16.56,-3.84,0.68,8.72
19487,-5.06,21.93,-19.12,-5.63,1.70,8.95
19493,-4.12,26.95,-19.56,-5.81,1.33,8.38
19500,-4.00,31.81,-22.31,-3.60,0.97,8.26
19510,-3.06,37.13,-27.69,-5.23,0.69,8.27
19516,-1.62,44.96,-33.25,-3.30,1.28,8.01
19524,-1.31,56.39,-35.88,-3.76,1.15,8.34
19586,-2.00,70.18,-35.69,-5.86,1.26,8.61
19596,-2.00,84.88,-34.06,-5.34,1.10,8.56
19602,-5.06,99.29,-30.94,-5.87,0.55,8.81
19608,-0.50,112.21,-28.81,-5.94,0.41,8.34
19616,-3.25,123.09,-28.94,-6.11,1.23,8.12
19623,-7.19,133.02,-30.00,-6.27,1.31,8.04
19629,-17.69,144.51,-33.25,-5.17,1.27,7.88
19637,-18.19,158.88,-39.62,-6.30,1.06,8.08
19651,-16.38,175.90,-48.19,-5.84,1.40,8.60
19658,-7.25,195.28,-59.31,-6.39,0.60,10.08
19666,-5.62,217.01,-70.44,-7.86,1.42,9.24
19672,-0.56,240.66,-82.12,-7.80,1.62,9.69
19680,-4.94,264.98,-94.00,-8.51,0.93,10.00
19687,-3.19,288.35,-104.00,-8.52,0.82,9.89
19693,8.75,309.32,-112.31,-10.35,0.25,9.39
19699,13.62,327.04,-119.94,-10.56,0.47,9.04
19706,9.00,340.77,-128.31,-8.43,1.25,6.07
19712,14.62,349.28,-139.62,-10.74,0.55,5.51
19720,9.50,352.56,-148.69,-8.82,-0.43,4.70
19727,13.38,352.67,-153.44,-8.63,-0.85,4.17
19733,26.56,352.01,-152.19,-10.86,-1.14,3.59
19749,45.81,351.74,-145.31,-10.68,-1.24,3.49
19757,58.88,350.21,-142.81,-11.25,-0.18,4.69
19763,73.75,343.67,-140.38,-13.01,1.53,6.65
19770,85.19,327.36,-127.44,-15.79,11.46,17.59
19777,75.62,295.34,-104.38,-31.84,13.80,27.62
19786,41.75,241.35,-54.25,-16.07,15.00,21.55
19792,31.38,155.74,14.62,-10.69,8.77,12.87
19799,-49.75,40.24,35.19,-8.17,4.18,10.25
19805,-98.00,-77.54,38.62,-6.37,0.71,8.13
19812,-102.88,-170.90,35.94,-3.62,-2.73,6.80
19825,-86.69,-233.15,33.19,-0.54,-5.57,4.05
19832,-37.00,-268.87,25.88,-0.84,-4.36,2.58
19841,15.50,-284.75,15.56,-0.54,-2.18,1.56
19854,59.81,-285.18,4.25,-0.96,0.00,1.53
19860,77.19,-273.56,-1.88,-5.24,3.75,5.29
19871,74.00,-255.40,2.25,-8.73,4.98,7.85
19878,75.38,-239.93,19.31,-11.33,6.21,9.38
19885,73.44,-236.98,46.75,-13.85,6.88,9.70
19892,63.75,-251.67,77.56,-11.46,5.97,7.06
19899,58.00,-281.46,105.50,-10.93,4.91,4.94
19906,42.25,-317.32,124.81,-8.63,3.03,3.11
19914,24.19,-347.93,137.38,-6.09,1.43,2.68
19922,29.25,-364.25,141.06,-5.70,-0.04,3.93
19930,44.44,-365.39,141.69,-6.29,0.14,5.36
19937,76.88,-354.86,146.12,-7.87,0.42,6.70
19949,89.31,-333.67,151.56,-8.95,0.77,7.17
19956,110.06,-306.31,153.75,-8.56,0.91,7.74
19963,106.38,-277.40,154.50,-8.51,0.95,7.98
19970,106.38,-249.83,154.50,-10.82,0.43,9.84
19978,108.81,-228.68,154.25,-13.02,0.33,13.34
19986,120.31,-213.23,158.25,-18.11,2.77,15.20
19993,127.94,-201.84,161.62,-18.63,3.49,14.77
19999,93.81,-198.48,154.69,-18.40,3.45,14.05
20006,93.81,-203.14,154.69,-21.01,3.00,13.60
20013,91.44,-210.11,153.94,-21.24,2.75,11.87
20022,105.62,-216.22,160.25,-21.38,2.90,9.50
20028,107.50,-221.44,169.25,-18.38,0.19,6.92
20035,93.12,-221.96,181.75,-15.79,-4.10,3.98
20042,93.12,-214.62,181.75,-13.95,-4.49,1.65
20055,106.00,-202.07,182.56,-13.49,-7.84,0.18
20063,106.06,-183.62,172.81,-15.68,-9.92,-1.32
20071,111.81,-154.04,135.06,-16.49,-11.01,-5.67
20078,93.38,-113.86,104.69,-16.11,-11.57,-7.69
20084,93.38,-75.85,104.69,-15.57,-11.46,-8.87
20090,76.06,-49.25,75.00,-13.77,-10.34,-9.05
20097,24.81,-23.07,21.81,-13.00,-6.62,-5.60
20104,24.81,10.16,21.81,-11.15,0.22,-5.18
20111,-86.06,43.39,-22.56,-11.49,-1.57,0.95
20118,-86.06,72.41,-22.56,-0.61,-3.63,11.68
20129,-71.69,90.35,-18.31,11.98,18.86,22.80
20136,-66.31,90.99,-68.38,7.41,11.15,17.88
20143,-83.94,84.35,-116.44,2.36,-0.41,8.20
20156,-87.25,86.42,-117.25,-0.53,-3.73,1.79
20163,-82.00,101.05,-95.94,-5.23,-3.54,5.98
20171,-62.69,121.55,-78.25,-7.79,-1.46,10.97
20178,-53.19,139.65,-77.56,-7.77,-0.02,12.18
20185,-50.81,147.55,-82.75,-8.70,-1.53,11.68
20192,-39.94,143.50,-76.50,-5.93,2.29,10.38
20198,-32.88,134.99,-65.50,-7.94,3.83,11.54
20205,-34.31,128.12,-55.44,-10.79,4.13,12.02
20211,-49.62,120.96,-46.81,-11.42,4.20,11.16
20219,-64.88,109.72,-39.81,-10.48,5.03,11.22
20226,-84.38,91.44,-37.19,-10.59,2.59,11.61
20243,-82.62,65.79,-34.81,-5.26,1.00,10.06
20251,-70.69,40.59,-30.62,-5.86,0.48,9.83
20267,-67.94,24.67,-26.44,-6.28,0.59,9.53
20277,-48.12,16.27,-23.06,-5.19,1.19,9.01
20285,-37.56,9.87,-19.38,-5.92,1.57,9.06
20292,-36.69,4.16,-18.25,-5.77,1.51,8.70
20299,-19.62,-0.25,-14.81,-5.20,1.50,8.66
20305,-21.62,-2.93,-12.06,-5.32,1.22,8.50
20353,-17.31,-3.99,-9.69,-5.37,1.29,8.47
20363,-6.06,-4.17,-7.81,-3.70,1.56,8.77
20369,-3.56,-4.30,-6.38,-5.20,1.22,8.15
20376,-3.31,-4.60,-6.25,-5.42,1.58,8.29
20389,-3.19,-4.91,-5.56,-3.48,1.41,8.45
20416,-3.88,-5.11,-5.94,-5.14,1.69,8.51
20426,-4.25,-5.23,-5.38,-5.14,1.31,8.34
20442,-4.62,-5.26,-6.00,-5.29,1.46,8.56
20465,-4.50,-5.07,-6.31,-5.27,1.13,8.49
20473,-3.62,-4.69,-5.94,-3.79,1.36,8.83
20480,-2.38,-4.20,-5.75,-3.68,1.16,8.52
20487,-1.12,-3.54,-5.44,-5.41,1.05,8.74
20499,-7.12,-2.66,-4.12,-3.75,0.91,8.54
20507,-5.56,-1.60,-2.81,-3.83,0.98,8.56
20514,-4.38,-0.30,-2.19,-5.68,0.72,8.39
20522,-2.19,1.15,-0.50,-3.33,1.42,8.61
20531,-1.62,2.52,-0.38,-3.78,0.88,8.53
20539,-0.75,3.79,-0.38,-5.30,0.82,8.41
20546,8.12,4.93,0.31,-3.61,1.04,8.22
20555,8.19,5.84,0.00,-5.26,0.94,8.42
20570,8.12,6.54,-0.19,-5.33,1.20,8.21
20576,-0.44,6.96,-0.94,-5.27,0.96,8.16
20586,-0.44,7.04,-0.94,-5.18,1.09,8.18
20594,-1.81,6.67,-3.25,-5.35,1.22,7.94
20601,-2.69,5.68,-3.81,-5.26,1.11,8.14
20609,-3.44,4.35,-4.62,-5.29,1.01,8.10
20616,-3.81,3.24,-5.38,-5.69,0.93,8.13
20623,-3.75,2.55,-5.19,-5.47,1.12,8.25
20630,-3.69,2.20,-5.31,-5.48,0.90,8.15
20638,-3.12,2.11,-4.88,-5.26,0.94,8.38
20644,-2.94,2.25,-4.81,-5.47,0.88,8.25
20650,-2.94,2.50,-4.81,-5.36,0.83,8.08
20656,-2.75,2.80,-4.75,-5.39,0.90,8.31
20666,-2.25,3.26,-4.12,-5.02,1.21,8.29
20675,-2.38,3.97,-4.00,-5.63,0.66,8.23
20683,-2.00,4.75,-3.38,-5.57,0.72,8.18
20702,-2.00,5.31,-3.38,-5.31,0.76,8.30
20710,-1.62,5.63,-2.94,-5.32,1.06,8.23
20716,-1.44,6.01,-3.12,-5.69,0.84,8.18
20721,-1.06,6.53,-3.12,-5.33,0.87,8.16
20726,-1.19,7.01,-3.69,-5.72,0.87,8.25
20731,-1.44,7.34,-4.00,-3.57,1.31,8.20
20738,-1.88,7.47,-4.69,-5.34,1.04,8.29
20744,-1.88,7.43,-5.38,-5.58,1.01,7.96
20749,-2.38,7.31,-5.75,-5.59,0.99,8.29
20754,-2.81,7.16,-5.81,-3.70,0.92,8.22
20760,-2.81,7.08,-5.81,-5.80,0.98,8.24
20768,-2.94,7.17,-6.31,-5.44,1.06,8.12
20773,-3.44,7.64,-7.62,-5.52,1.04,8.14
20779,-3.88,8.48,-8.25,-5.42,1.00,8.01
20784,-4.31,9.45,-8.88,-5.81,0.85,8.16
20790,-4.31,10.32,-8.88,-5.48,0.94,8.33
20795,-4.50,11.03,-9.38,-5.49,0.97,8.06
20804,-5.56,11.95,-11.19,-3.71,0.83,8.38
20810,-6.19,13.84,-15.00,-5.67,0.60,8.01
20816,-6.25,17.25,-15.88,-4.97,0.55,8.10
20822,-6.25,21.29,-15.88,-4.97,0.55,8.10
20830,-6.56,24.89,-19.00,-5.04,0.52,8.70
20866,-4.75,28.54,-20.12,-5.97,1.62,8.82
20893,-5.38,32.70,-21.25,-4.65,1.17,7.90
20898,-5.88,37.87,-27.44,-4.61,-1.07,-0.01
20904,-5.50,45.81,-33.31,-4.61,0.42,8.12
20920,-5.25,57.80,-37.75,-4.74,0.47,8.26
20926,-4.94,72.79,-37.69,-5.78,0.92,-319.12
20931,-6.12,88.84,-35.94,-6.21,1.01,8.63
20936,-8.50,104.54,-32.75,-6.24,1.37,8.57
20943,-12.06,118.03,-28.69,-6.24,1.37,8.57
20950,-17.19,128.15,-27.69,-5.80,0.70,8.23
20956,-21.50,137.15,-28.56,-6.44,1.21,8.36
20962,-24.56,147.96,-31.69,-6.36,0.94,8.14
20975,-24.94,161.26,-37.56,-7.24,0.61,8.12
20981,-22.62,176.60,-46.38,-7.24,0.61,8.12
20987,-25.56,193.58,-58.50,-7.12,1.24,8.29
20997,-20.31,211.90,-70.00,-8.46,1.26,8.74
21004,-11.75,231.77,-82.12,-8.44,1.42,9.24
21013,-3.75,252.95,-94.06,-8.95,1.30,9.34
21020,2.50,273.26,-105.69,-8.95,1.30,9.34
21026,5.56,290.52,-116.00,-10.06,0.93,9.38
21031,10.38,304.19,-125.19,-10.33,0.36,7.09
21037,15.75,313.82,-133.81,-9.43,1.45,5.95
21046,13.06,318.72,-145.88,-10.46,0.90,5.37
21054,-2.25,319.15,-159.38,-10.46,0.90,5.37
21059,-8.81,316.96,-167.25,-9.65,0.03,4.82
21075,3.69,314.47,-164.38,-10.65,-1.62,4.05
21081,21.50,312.41,-157.94,-11.41,-1.67,3.68
21087,47.50,309.71,-151.25,-11.19,0.06,6.12
21094,66.88,303.47,-144.69,-11.19,0.06,6.12
21103,75.25,287.89,-127.38,-17.27,6.87,16.45
21109,67.75,256.25,-92.88,-15.26,12.78,18.56
21114,63.94,200.81,-36.19,-11.84,12.63,14.57
21120,21.50,120.11,0.94,-8.09,7.41,11.29
21126,-29.88,29.20,23.00,-8.09,7.41,11.29
21132,-61.62,-52.40,37.25,-6.58,4.68,9.86
21138,-70.06,-114.85,46.38,-5.07,0.02,8.21
21145,-54.88,-157.73,53.81,-4.99,-2.27,7.77
21153,-24.94,-185.88,57.06,-5.51,-1.78,7.91
21159,8.69,-205.16,56.25,-5.51,-1.78,7.91
21163,33.44,-220.70,52.69,-6.65,-0.69,8.26
21171,42.50,-236.79,46.69,-8.70,1.46,7.72
21178,42.75,-256.23,42.06,-8.35,1.61,6.74
21185,42.50,-279.01,42.00,-7.84,1.71,5.82
21191,44.25,-302.16,46.31,-7.84,1.71,5.82
21196,49.00,-321.44,54.31,-7.31,2.06,4.49
21204,54.62,-333.51,63.38,-7.75,3.10,4.63
21210,58.81,-337.66,73.12,-7.33,3.67,4.78
21215,61.31,-336.06,85.81,-7.50,3.71,5.58
21220,63.25,-330.88,101.88,-7.50,3.71,5.58
21225,66.75,-322.08,119.81,-2.03,-0.01,-0.01
21232,77.19,-309.68,135.88,-7.25,1.44,6.67
21237,91.94,-294.22,146.31,-7.69,0.34,7.43
21243,104.94,-276.42,152.00,-7.26,0.20,7.72
21251,112.56,-257.05,151.81,-7.26,0.20,7.72
21256,120.31,-234.46,150.69,-9.85,-0.10,10.93
21261,130.56,-209.67,154.88,-14.17,1.01,15.27
21270,128.31,-190.88,155.62,-14.80,0.69,15.53
21279,121.75,-183.35,151.75,-16.02,0.64,15.55
21300,119.19,-183.72,146.44,-16.02,0.64,15.55
21307,119.00,-186.44,142.38,-17.55,1.28,15.74
21312,122.62,-188.89,144.62,-23.03,6.10,13.80
21317,115.88,-191.61,152.50,-23.03,6.10,13.80
21344,87.94,-196.08,164.31,-24.02,1.90,10.32
21351,71.62,-203.14,189.31,-24.02,1.90,10.32
21358,68.88,-211.10,215.62,-18.58,-1.12,3.07
21364,56.00,-190.87,-0.06,-17.62,-1.86,0.15
21372,42.69,-139.53,204.50,-15.85,-10.96,-2.86
21392,43.75,-111.76,186.88,-16.14,-14.71,-7.29
21399,57.00,-111.67,168.50,-16.14,-14.71,-7.29
21406,72.31,-104.40,141.56,-15.93,-14.41,-9.24
21412,76.38,-81.94,106.00,-13.98,-12.48,-9.19
21420,56.44,-48.32,66.69,-13.32,-9.80,-4.55
21436,31.00,-10.90,26.94,-11.30,-5.96,-2.90
21443,11.44,23.78,-7.75,-11.30,-5.96,-2.90
21450,-36.44,53.54,-43.19,-11.43,-2.03,-2.78
21456,-52.88,77.06,-61.94,4.73,13.48,24.76
21463,-25.69,89.12,-67.19,6.88,14.32,21.03
21469,-32.31,87.48,-95.44,2.18,5.49,10.29
21493,-66.00,80.10,-148.12,2.18,5.49,10.29
21500,-69.25,81.38,-150.25,-1.01,-1.67,-2.27
21508,-64.31,99.15,-115.12,-10.43,1.20,12.00
21515,-39.69,128.83,-82.88,-11.29,2.12,14.94
21522,-51.19,155.66,-68.31,-6.01,0.22,11.38
21529,-52.88,164.30,-71.94,-6.01,0.22,11.38
21536,-34.69,155.11,-66.69,-5.79,2.55,11.14
21543,-37.12,141.28,-55.69,-8.73,3.34,11.75
21550,-39.12,131.01,-47.38,-13.00,5.12,12.07
21558,-54.56,122.83,-44.31,-13.18,1.96,12.12
21564,-69.75,111.84,-39.31,-13.18,1.96,12.12
21571,-81.62,91.01,-34.50,-5.55,0.58,10.47
21585,-69.56,61.14,-30.12,-6.17,1.52,9.45
21594,-67.94,35.42,-25.62,-6.40,1.45,9.30
21602,-57.25,19.82,-21.50,-5.78,1.43,8.95
21611,-37.12,10.46,-18.06,-5.78,1.43,8.95
21619,-35.50,4.54,-16.56,-5.65,1.57,8.71
21630,-19.12,0.80,-14.62,-5.50,1.75,8.50
21641,-21.06,-1.51,-12.00,-5.27,1.51,8.45
21652,-17.38,-2.86,-9.62,-3.64,1.32,8.41
21659,-6.38,-3.71,-7.88,-3.64,1.32,8.41
21671,-5.81,-4.36,-7.75,-5.52,1.35,8.52
21684,-5.44,-4.22,-0.06,-5.37,1.29,8.33
21693,-5.88,-3.36,-7.50,-3.57,1.19,8.51
21702,-5.38,-3.19,-7.31,-5.32,1.16,8.93
21710,-5.19,-3.60,-7.75,-5.32,1.16,8.93
21720,-3.75,-3.66,-6.25,-3.33,1.25,8.61
21731,-3.19,-3.34,-6.31,-3.69,1.31,8.39
21741,-2.12,-2.70,-5.94,-5.27,1.08,8.67
21752,-0.94,-1.94,-5.38,-5.27,1.08,8.67
21760,-0.06,-1.31,-5.06,-3.81,1.17,8.51
21769,-6.75,-0.80,-4.88,-5.42,1.07,8.63
21786,-5.25,-0.24,-3.94,-5.15,1.19,8.47
21793,-4.75,0.55,-3.94,-5.40,1.04,8.36
21802,-4.00,1.58,-3.75,-3.81,1.10,8.35
21810,-3.50,2.68,-3.44,-5.20,0.95,8.38
21824,-3.06,3.64,-3.25,-5.34,0.95,8.26
21831,-2.62,4.34,-3.12,-5.52,0.76,8.27
21842,-1.81,4.83,-2.94,-5.25,0.96,8.30
21851,-1.38,5.25,-2.94,-5.52,1.06,8.27
21860,-1.50,5.61,-3.44,-5.52,1.06,8.27
21869,-1.75,5.77,-3.69,-5.35,1.04,8.08
21886,-2.06,5.58,-4.31,-5.47,0.96,8.31
21894,-2.31,5.08,-4.81,-5.41,1.11,8.13
21903,-2.75,4.41,-5.19,-5.67,0.90,8.08
21911,-3.06,3.75,-5.81,-5.31,0.99,7.99
21919,-2.94,3.31,-5.44,-5.40,1.12,8.35
21930,-3.19,3.08,-5.62,-5.35,0.91,8.18
21941,-2.94,2.97,-5.50,-5.12,0.76,8.24
21951,-2.50,2.99,-5.06,-5.65,0.77,8.25
21959,-2.12,3.22,-4.25,-5.31,0.88,8.25
21970,-1.62,3.58,-3.38,-5.21,0.91,8.35
21979,-1.25,4.02,-2.69,-5.42,0.79,8.20
21991,-1.12,4.50,-2.56,-5.59,0.85,8.15
22003,-1.00,4.85,-2.50,-5.25,0.89,8.16
22010,-1.12,5.02,-2.31,-5.15,1.05,8.20
22020,-0.81,5.12,-2.31,-5.63,0.82,8.14
22030,-1.00,5.30,-2.56,-5.42,0.84,8.13
22041,-0.69,5.62,-2.69,-5.30,0.95,8.23
22051,-0.69,6.01,-3.62,-3.79,1.13,8.31
22059,-0.44,6.34,-4.25,-5.41,0.98,8.27
22069,-0.69,6.57,-4.88,-5.45,0.98,8.27
22079,-0.56,6.73,-4.94,-3.80,0.95,8.31
22094,-1.06,7.01,-5.94,-5.27,1.30,8.05
22107,-1.44,7.50,-6.88,-5.64,1.11,8.07
22115,-2.31,7.96,-7.25,-5.31,1.19,8.17
22126,-3.44,8.19,-7.88,-5.70,0.95,8.00
22134,-4.12,8.20,-8.81,-5.19,1.15,8.17
22141,-4.62,8.17,-9.31,-5.58,1.00,8.21
22151,-5.31,8.43,-10.19,-5.30,1.00,8.22
22160,-5.44,9.27,-10.94,-5.19,0.93,8.17
22170,-5.81,10.77,-13.00,-3.70,0.60,8.34
22180,-5.88,12.99,-15.12,-5.80,1.33,8.04
22195,-6.12,16.15,-18.00,-4.89,0.58,7.47
22202,-6.50,20.50,-21.06,-3.68,0.71,8.19
22209,-6.00,26.05,-23.31,-5.63,2.16,8.85
22220,-5.81,32.17,-23.06,-5.41,1.25,8.57
22231,-6.06,38.52,-27.50,-3.28,1.10,8.03
22242,-7.25,46.53,-32.75,-3.72,0.70,7.88
22251,-7.94,57.61,-36.31,-4.42,0.62,8.16
22259,-0.19,71.25,-36.81,-5.17,0.93,8.36
22271,-2.31,85.91,-34.75,-5.77,0.74,8.56
22284,-4.56,100.18,-30.88,-6.37,0.84,8.49
22305,-16.69,112.77,-27.75,-6.08,1.23,8.34
22312,-21.75,122.41,-26.81,-6.05,0.39,8.21
22320,-18.69,129.94,-29.12,-6.14,0.58,7.92
22339,-23.88,138.24,-31.94,-5.32,0.97,7.73
22346,-35.44,148.90,-36.81,-5.44,0.98,8.11
22353,-37.19,161.58,-43.94,-5.32,0.94,7.69
22360,-37.38,175.73,-54.81,-6.01,0.60,7.82
22368,-32.38,191.37,-68.00,-5.80,0.59,9.61
22378,-38.06,208.15,-81.56,-8.69,0.00,9.59
22385,-17.50,225.83,-95.00,-8.19,1.30,8.44
22395,-8.00,244.34,-107.50,-8.58,0.69,9.49
22407,-1.38,262.13,-117.38,-8.84,0.27,10.18
22415,25.25,277.87,-126.69,-11.48,0.02,10.82
22424,47.94,291.15,-134.88,-13.60,0.34,12.32
22432,74.25,299.19,-141.94,-13.08,0.61,12.81
22442,78.88,297.20,-151.56,-13.95,1.41,10.29
22451,70.31,282.24,-158.38,-1.17,-0.01,-0.01
22463,89.19,252.61,-148.06,-13.97,2.16,13.50
22470,90.31,204.42,-133.44,-10.91,4.15,20.90
22480,73.31,137.70,-119.38,-10.72,9.52,13.21
22494,44.56,66.00,-113.19,-3.72,12.17,11.56
22504,-0.75,6.92,-98.38,-0.98,10.94,8.35
22512,-23.44,-33.98,-80.44,1.31,5.86,7.28
22519,-20.69,-60.20,-50.00,-0.83,5.50,7.36
22531,-4.94,-72.43,-19.75,-0.06,5.28,7.82
22541,9.00,-71.45,8.06,-0.02,5.46,7.94
22551,14.69,-65.76,28.75,-2.84,4.71,9.25
22559,8.12,-63.56,42.62,-3.53,3.83,9.75
22569,11.06,-68.23,54.31,-3.48,2.83,10.63
22581,24.62,-82.43,63.06,-3.75,1.66,10.59
22590,26.06,-106.38,64.81,-5.79,0.78,10.00
22601,42.00,-135.55,62.38,-6.07,1.04,9.37
22609,45.19,-164.47,59.06,-5.38,1.12,8.23
22620,47.75,-189.04,56.62,-5.60,1.22,7.81
22633,45.62,-206.02,57.75,-6.40,1.48,7.66
22642,62.75,-215.53,64.44,-5.91,2.16,7.98
22652,62.69,-220.48,74.56,-7.75,2.78,8.18
22659,74.62,-224.07,87.25,-8.22,3.44,8.23
22669,73.81,-228.24,101.25,-8.12,3.84,7.76
22679,72.56,-232.47,116.00,-7.92,3.42,7.40
22691,73.88,-234.58,130.94,-6.17,2.91,6.89
22711,76.88,-232.14,144.25,-6.86,2.53,-0.01
22721,74.00,-222.97,154.56,-8.74,1.52,9.33
22729,92.50,-207.08,165.56,-11.12,1.27,11.71
22737,95.69,-190.22,173.81,-10.32,1.24,12.41
22744,79.62,-180.31,172.50,-11.02,1.09,12.08
22751,76.69,-178.16,162.94,-10.34,-0.37,11.54
22759,72.44,-177.84,149.69,-10.29,-0.76,12.72
22769,73.38,-174.45,140.94,-13.94,-0.69,14.67
22782,95.19,-168.61,142.81,-17.16,0.07,16.81
22790,121.31,-165.69,153.81,-20.88,3.37,16.47
22803,123.62,-170.95,168.69,-21.04,4.15,14.49
22812,104.31,-184.40,182.62,-20.70,3.05,12.26
22829,92.12,-200.45,193.31,-18.42,-0.85,8.77
22839,92.81,-212.11,198.19,-18.85,-1.55,7.58
22846,74.38,-215.20,195.44,-19.08,-2.47,-0.01
22872,59.94,-209.89,187.81,-18.20,-3.74,3.38
22885,57.81,-198.16,173.12,-16.34,-11.16,-1.58
22892,58.44,-180.51,155.81,-16.01,-12.86,-4.27
22899,73.06,-156.62,131.44,-16.11,-13.66,-6.85
22913,79.19,-127.07,98.94,-15.80,-13.67,-9.07
22922,72.69,-93.01,65.50,-16.00,-11.47,-10.45
22930,60.69,-55.65,33.75,-15.64,-9.76,-9.18
22938,25.69,-16.82,4.69,-15.73,-8.26,-6.78
22947,10.38,20.55,-18.81,-15.73,-7.08,-4.02
22955,-2.69,52.99,-35.62,-11.32,-0.54,0.73
22962,-19.12,78.34,-47.25,-12.91,1.31,5.08
22970,-39.69,94.67,-56.12,4.79,6.93,13.11
23000,-50.56,98.36,-60.50,1.54,11.96,28.26
23025,-48.56,88.10,-72.06,7.42,14.40,24.35
23035,-64.31,70.50,-104.69,4.33,3.11,3.01
23047,-69.06,62.99,-137.12,0.80,-2.28,-3.72
23054,-82.75,78.57,-115.19,-2.97,-3.82,-2.23
23060,-50.69,109.80,-72.00,-7.77,0.18,11.76
23066,-39.88,141.67,-55.81,-11.11,1.52,15.38
23072,-55.25,157.58,-70.75,-6.14,-1.98,11.12
23078,-39.69,147.52,-69.56,-3.60,0.24,9.70
23085,-33.12,126.10,-56.62,-8.13,3.41,12.17
23094,-22.00,112.44,-46.62,-8.59,2.81,12.09
23101,-22.62,107.39,-39.06,-7.99,2.18,10.85
23117,-32.75,103.39,-33.75,-8.27,3.84,11.04
23126,-33.50,96.84,-30.12,-9.10,3.52,10.93
23135,-53.31,85.36,-28.06,-7.86,2.87,11.19
23142,-53.56,65.86,-28.12,-5.95,0.75,9.68
23151,-51.50,42.95,-25.44,-5.39,1.78,8.97
23157,-50.38,25.99,-22.12,-5.37,2.02,9.02
23166,-53.25,17.08,-21.12,-6.28,1.50,8.88
23173,-39.06,11.68,-21.50,-6.01,1.34,8.80
23180,-39.31,6.45,-21.31,-5.34,1.50,8.68
23186,-23.38,1.32,-17.88,-5.17,1.57,8.66
23193,-18.38,-2.35,-14.44,-5.23,1.55,8.67
23200,-22.62,-3.75,-12.56,-5.41,1.36,8.50
23220,-19.44,-3.59,-10.69,-3.79,1.48,8.28
23227,-17.44,-3.10,-9.31,-5.23,1.51,8.35
23236,-16.31,-2.84,-8.12,-3.81,1.39,8.18
23248,-6.75,-2.95,-7.69,-5.11,1.40,8.75
23257,-5.88,-3.56,-7.75,-5.29,1.18,8.54
23263,-5.19,-4.47,-6.88,-3.70,1.29,8.53
23270,-5.00,-5.16,-6.81,-5.22,1.23,8.56
23279,-4.44,-5.20,-7.00,-5.50,1.19,8.62
23289,-3.12,-4.69,-6.44,-5.26,1.28,8.84
23299,-2.06,-4.00,-6.38,-3.80,1.25,8.59
23310,-0.75,-3.29,-5.81,-5.28,1.17,8.67
23319,-7.25,-2.63,-4.94,-3.73,0.97,8.58
23329,-5.81,-1.99,-4.12,-5.52,1.01,8.47
23339,-4.31,-1.22,-3.38,-3.39,1.37,8.48
23350,-3.62,-0.33,-2.94,-5.39,1.06,8.61
23359,-3.25,0.60,-3.12,-5.13,1.06,8.42
23370,-3.19,1.52,-3.06,-5.21,0.86,8.33
23380,-3.12,2.47,-3.06,-5.24,1.05,8.37
23389,-2.69,3.34,-2.75,-3.79,1.47,8.19
23399,-2.88,3.97,-3.31,-5.15,1.08,8.44
23409,-2.44,4.36,-3.50,-5.36,1.07,8.16
23420,-2.62,4.43,-3.94,-5.25,1.16,8.11
23429,-2.88,4.14,-4.19,-5.19,1.03,8.20
23440,-3.31,3.68,-4.50,-5.26,1.02,8.02
23451,-3.62,3.21,-4.94,-5.44,1.15,8.15
23459,-3.75,2.90,-4.62,-5.40,1.00,8.25
23469,-3.75,2.77,-4.88,-5.61,0.85,8.29
23479,-3.19,2.67,-4.38,-3.65,0.98,8.44
23489,-2.94,2.59,-4.06,-5.40,0.91,8.20
23500,-3.06,2.69,-4.38,-5.32,0.88,8.30
23510,-2.69,3.00,-3.88,-5.34,0.85,8.21
23522,-2.25,3.46,-3.31,-5.46,0.75,8.20
23533,-2.38,4.00,-3.25,-5.55,0.90,8.25
23540,-2.06,4.49,-2.75,-3.65,1.02,8.31
23549,-2.06,4.85,-2.69,-5.31,0.87,8.31
23559,-2.25,5.22,-3.06,-5.23,0.76,8.30
23570,-1.88,5.63,-2.56,-5.14,0.94,8.34
23581,-1.62,5.98,-2.44,-5.28,0.95,8.28
23599,-1.50,6.27,-2.88,-5.41,0.79,8.18
23623,-1.06,6.50,-2.44,-5.13,1.01,8.29
23631,-1.50,6.65,-3.44,-5.38,0.93,8.08
23641,-1.50,6.75,-3.88,-5.15,1.03,8.22
23647,-1.81,6.81,-4.38,-5.34,0.95,8.18
23657,-1.81,6.87,-4.75,-5.46,0.88,8.14
23664,-2.25,7.00,-5.25,-5.36,1.16,8.23
23670,-2.75,7.07,-5.38,-5.23,1.05,8.21
23677,-3.62,6.98,-5.94,-5.60,1.14,8.19
23684,-4.19,6.78,-6.19,-5.40,0.89,8.17
23691,-4.81,6.60,-6.44,-5.14,1.13,8.36
23699,-5.62,6.67,-7.12,-5.40,0.95,8.19
23710,-6.56,7.31,-8.25,-5.24,0.94,8.32
23726,-7.25,8.62,-8.88,-3.71,0.85,8.34
23738,-7.81,10.62,-11.81,-5.74,1.06,8.22
23745,-7.88,13.37,-13.38,-3.51,1.25,7.62
23751,-0.94,17.16,-17.12,-3.74,0.17,8.14
23760,-0.31,22.32,-20.31,-5.27,1.71,9.72
23770,-6.75,28.09,-19.31,-6.16,2.49,9.21
23779,-7.31,33.54,-23.69,-3.03,0.66,8.19
23789,-7.69,39.62,-31.00,-3.70,0.29,8.09
23799,-0.12,48.48,-36.81,-3.20,0.61,8.59
23809,-7.94,60.62,-38.12,-2.65,1.04,8.01
23824,-0.94,75.25,-36.75,-3.46,0.60,8.76
23831,-1.06,92.38,-33.19,-5.55,0.91,8.66
23839,-3.12,111.03,-29.25,-5.49,1.20,8.76
23850,-7.81,128.82,-27.12,-6.01,0.07,8.60
23867,-20.00,143.70,-26.12,-5.80,0.94,8.02
23875,-16.88,155.01,-27.88,-6.03,1.04,8.00
23885,-20.00,165.06,-32.25,-5.39,1.08,8.09
23894,-21.44,176.85,-39.31,-5.34,0.82,7.78
23902,-21.19,191.01,-47.56,-5.94,0.83,8.08
23910,-21.56,207.06,-58.50,-7.77,0.22,9.50
23919,-16.19,224.85,-69.69,-6.19,0.52,8.69
23931,-17.25,244.16,-80.50,-7.70,0.76,8.64
23940,-1.81,263.91,-88.25,-7.87,0.46,8.80
23950,-1.62,282.40,-94.06,-8.54,0.28,9.26
23959,15.81,299.04,-100.00,-8.73,0.32,8.84
23970,26.00,314.44,-106.38,-10.59,0.18,8.59
23982,25.00,328.04,-114.94,-10.65,0.62,6.80
23989,27.38,338.20,-125.12,-8.54,1.43,5.30
24000,26.81,344.27,-137.75,-8.91,0.57,4.84
24010,13.62,347.32,-148.38,-10.57,-0.92,4.41
24019,27.56,349.07,-150.69,-10.27,-0.37,5.11
24039,57.00,349.23,-147.81,-13.02,-0.95,4.33
24046,79.12,345.74,-146.62,-13.43,-0.92,3.51
24057,91.31,336.79,-144.06,-13.03,0.91,6.26
24068,93.69,318.60,-140.88,-13.50,5.77,10.97
24074,78.75,284.02,-123.38,-18.52,14.89,17.08
24081,26.00,229.79,-84.44,-31.32,16.77,27.29
24090,12.06,150.61,-5.12,-13.00,16.36,17.72
24100,-55.81,43.26,31.25,-10.42,9.07,10.92
24111,-116.81,-70.09,40.06,-8.14,4.78,8.37
24119,-136.00,-161.63,43.50,-5.26,1.22,6.64
24136,-131.81,-222.98,43.00,-3.62,-2.50,5.56
24143,-80.12,-258.45,36.12,-0.28,-6.32,2.93
24151,-18.56,-274.98,26.44,1.37,-5.11,1.28
24160,24.50,-276.40,13.25,2.26,-3.19,0.10
24170,62.31,-264.32,-0.75,2.24,-0.84,-0.12
24179,72.19,-241.01,-6.12,-3.82,2.44,4.45
24190,93.12,-213.30,3.88,-8.45,3.99,8.42
24202,106.69,-194.12,30.38,-13.10,5.85,11.97
24224,105.38,-196.31,64.44,-15.44,8.56,11.38
24238,78.56,-225.62,95.06,-12.94,7.11,8.58
24246,40.88,-275.37,117.56,-11.36,4.78,5.41
24256,30.25,-327.65,131.19,-8.79,1.87,2.92
24263,24.69,-364.11,133.75,-6.38,-1.07,3.21
24272,46.12,-377.11,129.75,-5.79,-1.06,3.79
24279,72.56,-371.69,128.50,-5.89,0.14,5.29
24287,91.06,-354.26,132.38,-8.28,0.66,6.62
24295,109.62,-328.92,134.19,-8.86,0.93,8.03
24301,111.25,-302.83,137.62,-8.59,0.36,8.27
24311,120.19,-280.91,141.50,-8.77,-0.24,8.33
24320,136.19,-262.53,143.19,-7.75,-0.42,7.92
24339,136.12,-242.89,143.06,-11.02,-0.82,13.67
24347,156.38,-217.90,147.19,-13.17,0.09,15.25
24355,156.00,-194.11,150.12,-14.24,1.35,15.35
24362,139.81,-181.49,144.81,-12.93,1.88,14.99
24369,125.19,-178.55,138.44,-15.87,0.97,15.49
24380,127.88,-177.01,140.44,-21.57,1.09,17.24
24390,140.12,-173.86,155.88,-23.80,3.85,16.94
24400,124.25,-174.19,172.44,-25.73,3.10,15.02
24410,95.69,-184.00,186.88,-20.66,-1.57,8.48
24420,75.56,-201.14,197.25,-19.15,-2.38,3.67
24429,56.06,-214.73,191.06,-15.56,-6.27,0.10
24441,44.88,-213.63,173.12,-16.02,-12.43,-2.04
24452,72.31,-194.69,154.62,-18.52,-16.61,-8.04
24461,108.75,-163.07,130.38,-18.21,-16.21,-11.70
24469,106.00,-125.49,98.44,-16.46,-15.21,-14.13
24480,92.25,-84.71,62.56,-15.90,-11.49,-13.12
24490,44.94,-40.98,23.81,-16.38,-10.20,-9.74
24500,8.00,3.73,-11.44,-14.04,-2.67,-6.59
24510,-35.94,45.16,-36.94,-15.37,-2.96,-0.27
24521,-69.50,76.09,-45.88,-0.32,9.42,26.15
24530,-33.38,88.87,-46.88,15.24,25.66,32.14
24543,-50.38,84.35,-72.31,6.42,16.87,23.85
24551,-81.50,72.26,-122.19,1.58,2.52,3.35
24560,-86.56,68.69,-134.94,-0.26,-2.99,-4.30
24569,-88.00,86.83,-97.56,-5.81,-4.72,4.22
24579,-53.56,122.52,-64.19,-8.90,-2.13,13.47
24590,-55.75,160.59,-63.12,-13.07,-2.14,16.94
24600,-54.44,180.62,-80.94,-5.70,-0.02,10.83
24610,-35.44,171.26,-78.69,-7.93,3.71,11.36
24620,-35.44,147.99,-78.69,-10.77,5.80,12.66
24629,-36.81,130.09,-66.50,-10.96,6.17,12.33
24641,-52.94,118.11,-44.12,-10.95,4.68,11.78
24650,-70.94,103.88,-37.38,-10.65,0.36,11.50
24663,-85.19,82.15,-33.25,-5.89,0.62,10.91
24671,-71.81,54.14,-32.50,-3.81,0.90,10.30
24681,-70.81,30.21,-28.69,-5.83,1.42,9.42
24691,-52.81,17.59,-24.12,-6.29,1.53,8.57
24700,-50.75,11.92,-19.94,-6.16,1.72,8.62
24710,-33.44,7.89,-17.31,-5.72,2.06,8.82
24720,-33.44,4.49,-17.31,-5.57,1.76,8.49
24775,-34.38,1.91,-16.69,-5.32,1.56,8.35
24787,-21.56,-0.42,-11.88,-5.20,1.47,8.66
24795,-17.25,-2.75,-9.75,-5.49,1.49,8.60
24812,-6.94,-4.39,-8.56,-5.26,1.46,8.40
24818,-6.94,-5.08,-8.56,-5.17,1.67,8.62
24825,-6.25,-5.32,-7.75,-5.29,1.52,8.24
24833,-7.00,-5.61,-7.38,-3.71,1.45,8.35
24840,-6.19,-5.86,-6.62,-3.73,1.46,8.60
24853,-6.06,-5.79,-6.44,-3.79,1.22,8.63
24863,-6.06,-5.42,-6.44,-5.39,1.07,8.60
24869,-5.56,-4.90,-7.19,-5.28,0.93,8.53
24876,-2.50,-4.12,-6.12,-5.27,1.07,8.59
24884,-0.69,-3.03,-5.25,-3.57,1.15,8.64
24891,-7.25,-1.95,-4.44,-5.23,0.94,8.63
24899,-7.25,-1.09,-4.44,-3.83,1.11,8.37
24929,-5.94,-0.46,-4.06,-5.55,0.96,8.37
24939,-3.31,0.32,-3.00,-5.19,0.94,8.19
24972,-2.44,1.54,-2.44,-5.43,0.96,8.34
24979,-1.62,2.91,-1.56,-5.27,1.04,8.55
24988,-1.62,3.99,-1.56,-5.20,1.32,8.22
24995,-1.31,4.66,-1.38,-5.28,0.87,8.26
25001,-0.88,5.16,-2.12,-5.60,0.87,8.02
25009,-0.56,5.67,-2.12,-5.39,1.29,8.24
25016,-1.50,6.06,-2.81,-5.44,1.03,8.07
25022,-1.50,6.20,-2.81,-5.45,1.24,8.25
25029,-2.06,6.03,-3.88,-5.34,1.17,8.20
25038,-2.44,5.44,-4.12,-5.48,0.82,8.17
25047,-2.50,4.56,-4.81,-5.36,1.15,8.18
25055,-2.25,3.81,-4.50,-5.38,1.01,8.22
25062,-2.25,3.47,-4.50,-3.81,0.98,8.36
25068,-2.38,3.45,-4.31,-5.58,0.88,8.22
25077,-1.94,3.51,-3.75,-5.17,1.09,8.20
25084,-1.88,3.58,-3.50,-5.58,0.76,8.20
25092,-1.62,3.81,-3.12,-5.22,0.79,8.16
25099,-1.62,4.17,-3.12,-5.47,1.07,8.27
25106,-1.38,4.60,-2.81,-5.45,0.94,8.22
25112,-1.06,5.17,-2.50,-5.48,1.11,8.12
25118,-0.81,5.73,-2.38,-5.75,0.93,8.15
25125,-1.06,6.11,-2.81,-5.37,0.99,8.10
25133,-1.06,6.28,-2.81,-5.39,1.09,8.25
25140,-1.06,6.30,-2.81,-5.30,0.92,8.20
25149,-1.25,6.23,-3.25,-3.80,1.13,8.30
25178,-1.56,6.19,-4.31,-5.40,1.00,8.21
25187,-1.69,6.27,-5.38,-5.27,1.08,8.20
25194,-1.69,6.38,-5.38,-5.67,0.92,8.25
25200,-2.00,6.45,-5.69,-5.22,1.08,8.32
25208,-2.06,6.51,-5.94,-5.67,1.24,8.09
25215,-2.62,6.63,-6.56,-5.25,1.25,8.08
25222,-3.44,6.96,-7.00,-5.52,1.09,8.09
25229,-3.44,7.38,-7.00,-5.52,1.09,8.09
25236,-4.25,7.67,-7.19,-5.41,1.21,8.08
25245,-5.12,7.84,-7.56,-3.75,1.18,8.30
25256,-6.25,8.35,-9.12,-5.83,0.85,8.10
25263,-6.25,9.47,-9.12,-3.57,0.76,8.44
25272,-6.56,10.72,-10.56,-5.77,0.83,8.03
25279,-6.81,12.08,-12.56,-5.37,1.80,7.20
25291,-7.69,14.86,-16.44,-5.24,0.98,8.57
25300,-7.69,19.38,-16.44,-5.55,1.73,8.90
25311,-7.31,24.04,-19.12,-5.96,1.67,8.69
25320,-6.38,28.30,-18.88,-3.36,0.86,8.09
25332,-6.69,32.70,-21.44,-5.29,0.82,8.26
25347,-7.31,38.60,-26.56,-3.20,0.65,8.16
25370,-6.25,48.50,-31.38,-3.33,0.61,8.26
25376,-6.44,62.61,-34.25,-5.37,0.63,8.79
25383,-7.69,78.41,-32.94,-5.37,0.63,8.79
25389,-0.94,94.03,-29.19,-5.75,0.78,8.57
25396,-10.50,107.85,-24.06,-5.93,0.32,8.15
25405,-13.69,118.42,-21.00,-6.28,0.76,7.83
25411,-17.31,126.87,-21.31,-6.25,1.33,8.03
25421,-21.25,135.86,-21.56,-5.48,1.25,7.71
25430,-22.94,146.65,-23.94,-5.24,1.00,7.67
25442,-16.25,158.90,-29.12,-5.75,0.81,7.78
25452,-23.12,171.99,-36.06,-6.38,0.30,8.21
25464,-22.94,185.62,-45.56,-8.26,0.55,8.56
25473,-21.31,199.94,-56.75,-8.26,0.55,8.56
25479,-6.62,215.18,-67.12,-8.19,0.61,7.67
25490,-8.06,231.12,-76.69,-8.82,0.07,7.90
25502,8.38,246.73,-84.19,-8.00,-0.01,8.05
25511,9.25,260.73,-88.94,-8.28,-0.06,7.63
25519,26.88,273.08,-93.19,-0.94,-0.01,-0.01
25529,27.31,285.08,-97.69,-8.73,-0.40,7.84
25541,42.69,297.31,-102.69,-8.80,0.60,5.92
25551,38.75,308.73,-108.75,-8.74,1.04,5.33
25565,44.94,317.85,-117.19,-10.74,-0.76,4.50
25574,29.38,324.07,-127.31,-10.74,-0.76,4.50
25581,30.94,328.12,-134.88,-10.29,-1.05,3.46
25590,46.56,331.11,-136.56,-12.35,-0.60,3.48
25602,63.56,333.09,-135.38,-13.91,0.25,5.23
25611,78.25,332.89,-137.81,-16.17,1.38,6.90
25620,93.00,328.47,-138.31,-16.64,4.60,9.27
25629,108.94,316.17,-136.06,-16.64,4.60,9.27
25640,94.31,288.11,-119.50,-28.63,17.24,28.71
25651,56.75,239.79,-94.00,-10.98,14.21,14.85
25662,8.38,167.96,-19.00,-10.36,10.89,11.49
25670,-21.19,64.66,42.56,-10.36,10.89,11.49
25681,-85.31,-56.66,51.94,-7.86,6.69,9.78
25691,-119.06,-162.59,50.31,-0.90,-3.66,3.74
25701,-114.56,-233.91,44.81,-0.32,-5.32,2.70
25712,-81.31,-270.98,34.56,1.57,-5.19,2.34
25719,-16.19,-282.03,22.56,1.57,-5.19,2.34
25730,43.69,-274.68,12.88,-5.76,1.73,5.86
25740,79.19,-255.45,8.06,-8.48,4.26,8.47
25754,107.50,-233.56,12.31,-13.43,6.89,10.52
25770,122.94,-220.60,26.06,-13.84,9.06,9.73
25777,108.38,-226.75,47.56,-13.84,9.06,9.73
25788,78.75,-255.54,71.94,-13.32,7.88,7.43
25796,43.12,-299.96,95.44,-8.78,3.86,2.67
25802,25.25,-345.03,115.19,-8.25,1.29,2.99
25811,24.38,-376.05,125.12,-7.70,1.30,3.40
25820,47.44,-386.67,128.25,-7.70,1.30,3.40
25829,57.69,-382.08,133.94,-5.76,1.97,4.37
25840,74.12,-330.18,-0.06,-8.31,2.09,6.03
25851,87.69,-202.61,-0.06,-8.65,1.24,8.12
25868,109.31,-103.50,158.06,-7.70,0.57,8.82
25875,121.00,-123.91,161.75,-7.70,0.57,8.82
25882,122.62,-195.58,162.00,-8.54,0.92,10.44
25890,136.12,-238.21,159.19,-14.08,1.53,15.96
25903,143.75,-242.91,161.69,-15.83,2.96,17.10
25914,140.38,-228.97,165.56,-19.00,4.29,17.11
25930,139.44,-216.25,168.00,-19.00,4.29,17.11
25940,126.06,-213.40,168.81,-18.72,4.00,16.00
25948,108.12,-218.60,171.38,-20.78,3.57,14.60
25959,105.88,-225.78,178.19,-21.51,-4.45,9.32
25974,108.88,-229.31,185.56,-21.63,-4.44,7.51
25981,107.00,-226.09,196.38,-21.63,-4.44,7.51
25989,136.31,-216.28,207.50,-18.95,-2.95,3.85
25996,125.50,-200.66,203.00,-17.61,-6.19,0.96
26003,124.94,-178.55,188.50,-18.72,-15.38,-7.98
26012,127.25,-149.70,175.12,-18.57,-16.76,-11.48
26019,141.06,-116.45,146.44,-18.57,-16.76,-11.48
26029,137.44,-81.63,105.62,-19.10,-17.30,-13.59
26041,120.12,-45.87,65.88,-15.95,-12.03,-12.27
26051,105.06,-8.23,27.50,-16.44,-4.83,-5.37
26103,62.25,30.76,-6.81,-13.46,7.53,-2.37
26111,15.69,67.52,-30.19,-13.46,7.53,-2.37
26119,-70.75,96.16,-41.31,-2.94,7.66,23.24
26125,-93.62,110.15,-33.94,8.99,21.80,31.70
26132,-53.00,105.47,-28.56,12.15,23.93,23.71
26142,-97.88,86.76,-85.19,-1.14,-7.43,-0.34
26151,-147.06,70.91,-137.81,-0.84,-9.52,-1.63
26160,-148.31,73.03,-136.88,-5.35,-9.04,5.02
26166,-129.44,91.75,-116.94,-7.76,-4.61,13.81
26174,-100.62,114.67,-98.88,-5.41,-1.18,10.14
26186,-82.25,130.66,-102.38,-6.69,-1.18,10.14
26197,-65.38,135.10,-98.38,-5.24,2.91,10.15
26203,-39.81,131.16,-81.44,-10.33,6.28,11.81
26210,-48.19,127.28,-67.75,-0.96,-0.01,-0.01
26218,-81.31,124.56,-56.69,-10.47,-1.23,11.08
26225,-98.88,116.21,-46.00,-10.47,-1.23,11.08
26235,-101.62,96.23,-38.69,-6.34,0.63,13.03
26241,-86.81,66.08,-35.00,-5.67,1.13,10.12
26253,-80.56,38.29,-30.50,-5.85,0.72,9.76
26263,-67.31,21.93,-23.56,-6.00,1.97,8.67
26272,-53.62,14.06,-19.50,-6.00,1.97,8.67
26285,-33.88,9.41,-15.00,-5.69,2.06,8.44
26302,-33.56,5.83,-13.31,-5.74,2.08,8.54
26308,-19.69,2.72,-12.50,-5.54,1.92,8.38
26317,-21.25,-0.12,-10.25,-5.41,1.90,8.24
26325,-16.81,-2.64,-7.88,-5.40,1.87,8.63
26332,-6.38,-4.51,-7.00,-5.40,1.87,8.63
26340,-6.00,-5.67,-6.19,-3.76,1.80,8.28
26347,-6.88,-6.39,-6.75,-5.49,1.86,8.32
26354,-16.12,-6.86,-7.81,-3.75,1.44,8.50
26363,-16.12,-7.08,-7.88,-3.53,1.46,8.63
26371,-7.25,-7.10,-7.75,-5.34,1.13,8.44
26383,-6.31,-6.82,-7.88,-3.62,1.13,8.48
26391,-12.94,-6.24,-0.06,-5.59,1.03,8.55
26401,-3.56,-5.44,-6.50,-5.16,1.38,8.42
26412,-2.19,-4.49,-5.44,-5.16,1.02,8.53
26420,-1.06,-3.63,-5.06,-5.37,1.06,8.48
26429,-0.06,-2.86,-4.31,-5.85,0.96,8.41
26439,-7.19,-1.97,-4.31,-3.47,1.38,8.22
26450,-5.31,-0.85,-3.00,-5.69,0.94,8.44
26460,-4.38,0.44,-2.69,-5.41,1.04,8.44
26469,-3.44,1.78,-1.88,-5.29,1.00,8.39
26480,-2.56,3.02,-1.06,-5.21,1.18,8.63
26491,-1.69,4.05,-0.50,-5.28,1.20,8.02
26501,-1.44,4.88,-0.56,-5.28,1.00,8.08
26512,-0.94,5.60,-0.94,-5.31,1.37,7.90
26519,-0.69,6.14,-1.31,-5.27,1.25,8.29
26529,-1.31,6.34,-1.81,-5.38,1.08,8.21
26540,-1.75,6.00,-3.06,-5.51,1.06,8.05
26551,-2.44,5.14,-3.69,-5.37,1.31,8.23
26561,-2.31,4.15,-3.81,-5.27,1.16,8.06
26571,-2.75,3.36,-4.44,-5.61,1.16,8.06
26584,-2.44,2.90,-4.31,-5.58,0.97,8.24
26590,-2.44,2.78,-4.38,-5.44,1.03,8.26
26600,-2.12,2.83,-4.25,-5.13,1.07,8.21
26611,-1.94,2.90,-3.69,-5.41,1.14,8.31
26620,-1.88,3.05,-3.44,-5.71,1.02,8.07
26630,-1.75,3.28,-3.31,-5.37,1.13,8.14
26639,-1.44,3.55,-2.69,-5.42,1.20,8.28
26651,-1.44,3.86,-2.75,-5.58,1.04,8.19
26661,-1.38,4.18,-2.81,-5.51,0.98,8.29
26670,-1.25,4.46,-2.62,-5.47,0.99,8.10
26682,-0.88,4.71,-2.81,-5.36,1.08,8.16
26693,-0.81,4.99,-3.06,-5.36,0.94,8.08
26701,-0.81,5.27,-3.25,-5.59,1.04,8.20
26710,-1.12,5.40,-3.94,-5.26,1.17,8.13
26721,-1.44,5.36,-4.19,-3.81,1.20,8.26
26730,-1.94,5.28,-5.12,-5.31,1.25,8.17
26739,-2.56,5.29,-5.88,-5.25,1.05,8.19
26751,-3.12,5.36,-6.38,-5.46,1.26,8.07
26761,-3.50,5.48,-6.69,-5.77,1.05,8.09
26769,-3.56,5.70,-6.62,-5.37,1.22,8.23
26781,-3.81,6.06,-6.75,-5.68,1.10,8.03
26791,-4.50,6.55,-7.38,-5.42,1.26,8.04
26800,-4.88,7.09,-7.44,-5.63,0.98,8.18
26810,-5.25,7.60,-8.25,-5.55,1.22,8.20
26819,-5.81,8.10,-9.56,-5.53,0.98,8.05
26831,-6.19,8.80,-11.12,-5.40,1.10,8.36
26839,-6.31,9.80,-12.94,-3.69,0.92,8.34
26850,-6.62,11.18,-16.00,-5.26,1.85,7.19
26860,-6.50,13.23,-17.00,-5.22,0.26,8.11
26869,-6.38,16.35,-19.19,-5.43,0.92,8.35
26879,-5.44,20.64,-20.44,-5.70,1.49,8.97
26893,-4.75,25.40,-20.38,-3.38,0.71,8.10
26901,-5.25,30.34,-24.06,-3.52,1.14,7.80
26912,-4.69,36.80,-29.06,-4.71,0.73,8.17
26919,-3.00,46.45,-32.38,-3.83,1.19,8.08
26929,-3.75,59.38,-32.88,-5.58,1.01,8.06
26940,-4.31,74.28,-31.25,-5.72,1.34,8.68
26950,-4.94,89.64,-28.00,-3.73,0.70,9.01
26960,-7.88,104.27,-27.38,-6.19,1.08,8.40
26969,-2.19,117.44,-27.19,-5.82,1.44,8.03
26979,-6.12,128.62,-26.94,-6.29,1.25,7.98
26993,-17.75,138.56,-29.50,-6.28,1.03,7.85
27002,-19.00,149.31,-33.75,-6.30,0.46,8.05
27046,-19.00,161.84,-40.44,-5.32,0.62,7.72
27085,-18.00,175.92,-48.88,-5.32,0.72,8.10
27150,-19.19,191.22,-59.25,-5.94,0.85,8.89
27159,-16.12,208.33,-70.44,-7.73,1.95,9.23
27166,-1.44,228.21,-81.44,-8.92,2.14,10.14
27173,-4.56,249.84,-94.12,-8.12,1.39,9.89
27179,13.25,270.12,-106.75,-10.61,0.94,10.58
27187,31.25,286.61,-118.69,-13.08,0.35,11.33
27201,56.44,298.30,-126.81,-13.28,1.09,10.83
27209,78.06,303.18,-134.88,-13.33,1.92,9.79
27224,79.31,297.56,-141.38,-12.94,1.21,10.40
27231,93.06,278.50,-141.06,-11.01,4.15,12.42
27238,104.00,244.96,-137.38,-11.12,6.63,18.30
27246,94.62,196.14,-137.62,-5.74,7.73,16.04
27253,59.62,134.10,-136.81,-5.77,9.60,12.78
27260,41.44,70.61,-133.62,-0.78,9.79,9.34
27269,12.56,19.92,-115.06,-3.13,8.26,8.99
27275,-1.00,-13.68,-88.94,-1.27,7.22,9.05
27282,-4.69,-33.13,-56.31,-0.99,6.76,8.61
27291,12.69,-43.94,-24.38,-1.26,6.22,8.76
27304,11.69,-52.11,2.19,-2.96,5.82,9.09
27311,14.69,-61.67,22.12,-3.43,5.07,9.43
27317,25.12,-74.51,37.31,-3.30,3.30,10.08
27326,29.31,-91.24,49.00,-3.80,2.41,10.25
27332,28.19,-111.80,56.56,-5.49,1.54,10.16
27340,46.69,-135.39,60.62,-5.75,1.09,9.78
27348,58.00,-160.42,61.31,-5.78,1.51,8.21
27356,56.81,-184.85,59.81,-5.55,1.63,7.46
27365,58.44,-206.45,56.19,-5.48,1.40,7.06
27371,60.81,-223.06,53.38,-5.70,1.08,6.80
27377,75.88,-233.25,53.38,-5.54,1.83,7.16
27384,79.12,-236.84,56.88,-7.71,2.85,7.40
27395,88.31,-235.40,63.75,-7.90,3.82,7.43
27403,90.12,-231.45,75.06,-8.01,4.18,7.14
27411,94.81,-226.36,89.25,-6.35,3.60,6.86
27432,89.88,-219.32,104.62,-8.31,2.48,8.13
27439,93.12,-208.53,119.75,-8.71,1.44,10.22
27451,106.69,-193.68,134.69,-10.71,1.58,11.80
27458,107.44,-178.79,146.75,-10.70,2.24,11.68
27468,107.31,-169.88,148.00,-10.55,1.38,11.62
27474,88.81,-168.44,142.75,-10.76,0.60,11.88
27481,94.44,-170.60,137.94,-11.00,0.65,12.19
27494,90.69,-172.30,136.19,-13.76,2.38,13.19
27505,94.19,-172.37,136.56,-13.87,3.03,13.94
27513,105.25,-171.77,141.00,-16.33,3.33,14.13
27520,109.69,-173.20,150.69,-15.63,4.93,13.49
27528,95.38,-177.51,157.81,-16.20,2.27,11.74
27534,88.31,-181.52,161.62,-18.01,0.26,11.31
27541,95.50,-183.76,172.50,-15.67,-0.14,9.46
27550,107.25,-184.64,187.94,-13.43,-4.48,4.69
27557,122.69,-182.26,200.75,-10.60,-3.88,3.07
27564,137.69,-172.48,203.50,-11.39,-5.79,2.29
27570,139.19,-151.79,193.94,-13.20,-7.05,1.78
27578,139.81,-121.92,182.19,-15.53,-8.23,-1.51
27586,143.19,-89.86,161.69,-16.48,-9.71,-3.76
27592,136.00,-62.12,132.44,-15.93,-10.51,-5.72
27601,122.88,-39.93,102.44,-14.08,-9.71,-7.03
27609,120.00,-19.88,74.44,-13.14,-6.08,-6.89
27615,95.56,1.95,48.25,-13.40,-4.58,-5.14
27621,62.81,26.60,24.94,-13.74,-3.31,-2.98
27628,30.69,51.80,7.56,-13.96,0.51,-1.16
27636,-20.75,74.04,-6.88,-8.84,6.63,6.90
27643,-118.81,90.77,-17.06,-1.22,2.82,17.34
27651,-151.69,98.24,-9.38,2.16,12.16,22.11
27658,-98.12,93.08,1.81,9.82,19.88,19.78
27668,-134.19,79.97,-41.31,-1.23,-5.73,7.65
27677,-176.38,72.32,-102.25,-3.33,-8.69,4.77
27684,-180.75,76.63,-117.31,-3.00,-9.71,4.35
27690,-164.25,85.21,-112.25,-3.07,-9.86,10.32
27701,-133.81,93.58,-104.94,-3.02,-5.53,11.47
27713,-100.00,102.46,-103.12,-6.14,-2.88,10.99
27720,-66.94,110.44,-99.06,-5.95,1.68,10.92
27730,-34.81,118.20,-83.56,-8.64,4.75,10.98
27739,-36.94,126.05,-67.06,-10.79,7.58,11.13
27749,-36.50,131.35,-53.38,-10.72,4.73,10.89
27759,-53.94,132.48,-44.44,-11.51,4.00,11.97
27769,-71.25,127.17,-38.44,-5.47,-0.23,10.45
27779,-82.50,107.28,-37.00,-3.70,2.03,10.89
27789,-83.88,73.01,-36.94,-6.01,1.64,9.66
27799,-80.06,41.59,-30.88,-6.07,1.50,9.56
27809,-65.12,24.36,-27.06,-6.28,1.79,8.69
27819,-55.50,16.67,-22.81,-5.60,2.08,8.77
27829,-54.69,11.46,-19.69,-5.56,1.77,8.64
27839,-38.00,6.40,-18.44,-5.45,2.17,8.28
27879,-38.75,1.81,-17.31,-5.60,1.84,8.40
27890,-32.81,-1.79,-15.06,-5.46,1.49,8.60
27897,-19.12,-4.47,-13.25,-5.35,1.47,8.47
27907,-23.50,-6.71,-12.31,-5.26,1.63,8.62
27916,-22.38,-8.51,-11.69,-3.81,1.40,8.57
27925,-21.69,-9.55,-11.12,-5.20,1.31,8.61
27932,-21.38,-9.68,-11.50,-5.18,0.88,8.79
27939,-19.25,-8.91,-10.62,-3.69,1.18,8.69
27948,-16.69,-7.59,-8.50,-5.14,0.89,8.71
27954,-7.25,-6.11,-7.94,-3.67,1.14,8.73
27962,-5.12,-4.62,-7.19,-3.66,1.14,8.49
27968,-3.50,-3.22,-6.00,-5.20,1.18,8.64
27975,-2.19,-1.91,-5.44,-5.33,1.17,8.50
27981,-1.38,-0.67,-5.50,-3.56,1.43,8.36
27990,-7.94,0.49,-4.44,-5.71,0.90,8.51
28000,-7.50,1.53,-4.88,-5.29,1.04,8.20
28012,-6.50,2.44,-4.25,-5.27,0.83,8.23
28020,-5.62,3.21,-3.44,-5.22,1.35,8.60
28030,-4.31,3.78,-2.44,-5.52,1.04,8.18
28039,-3.94,4.15,-2.56,-5.45,0.98,8.24
28051,-2.94,4.43,-2.06,-5.40,1.04,8.04
28059,-2.50,4.65,-1.88,-5.49,0.85,8.32
28070,-2.31,4.70,-1.56,-3.78,1.08,8.12
28081,-2.00,4.51,-1.56,-5.24,1.17,8.17
28090,-1.94,4.12,-1.69,-5.18,1.13,8.40
28099,-1.62,3.55,-1.56,-5.27,0.90,8.14
28119,-1.94,2.99,-1.75,-5.66,0.71,8.19
28126,-1.62,2.61,-1.75,-5.30,1.00,8.33
28134,-1.38,2.44,-1.19,-5.35,0.81,8.38
28141,-1.38,2.41,-1.19,-5.32,0.89,8.26
28149,-1.00,2.43,-0.62,-5.32,0.86,8.23
28159,-0.50,2.54,-0.25,-5.43,0.88,8.14
28170,-0.12,2.78,0.00,-5.28,0.88,8.23
28180,8.25,3.12,0.19,-5.23,1.00,8.15
28189,8.38,3.47,0.38,-5.30,1.08,8.22
28200,8.25,3.77,0.06,-5.30,1.01,8.12
28209,8.12,3.98,-0.25,-5.28,0.99,8.22
28221,8.06,4.04,-0.56,-5.49,1.04,8.15
28231,-0.25,4.02,-1.19,-5.53,0.85,8.16
28240,-0.38,3.98,-1.75,-5.27,0.77,8.27
28249,-0.38,3.93,-1.88,-5.46,0.88,8.26
28260,-0.38,3.88,-2.81,-3.83,1.04,8.18
28270,-0.06,3.78,-3.12,-5.14,1.25,8.39
28283,-0.25,3.56,-3.81,-5.37,1.02,8.19
28291,-1.00,3.37,-5.25,-5.26,0.99,8.19
28300,-0.94,3.38,-5.69,-5.53,0.87,8.29
28309,-1.00,3.71,-5.62,-5.49,1.11,8.16
28321,-1.31,4.27,-6.12,-5.42,1.03,8.15
28330,-1.81,4.80,-6.19,-5.17,1.44,8.26
28340,-2.19,5.07,-6.12,-5.65,1.10,8.11
28350,-3.38,5.17,-7.62,-5.36,1.06,8.30
28361,-3.94,5.36,-8.12,-5.19,1.19,8.18
28371,-4.44,5.86,-9.06,-5.44,1.15,8.33
28380,-4.88,6.77,-10.31,-3.72,1.13,8.23
28389,-5.19,8.12,-11.88,-5.27,1.10,8.14
28399,-5.38,9.91,-13.75,-5.35,0.76,8.22
28410,-5.31,12.09,-15.81,-5.13,1.12,7.43
28424,-5.50,14.74,-17.62,-5.59,1.14,7.86
28442,-5.94,18.03,-19.38,-5.40,1.26,9.01
28458,-5.25,21.98,-21.81,-5.70,2.68,9.01
28468,-3.31,26.15,-21.19,-5.27,0.61,8.33
28476,-5.06,30.38,-24.56,-3.46,1.03,7.48
28482,-4.81,35.58,-30.12,-3.44,0.62,7.99
28490,-3.25,43.12,-34.00,-3.02,0.83,8.01
28496,-2.31,53.77,-35.06,-5.42,1.04,8.58
28502,-3.12,67.21,-32.56,-5.94,0.73,8.29
28587,-3.75,81.75,-29.81,-5.33,0.70,8.36
28596,-6.38,95.42,-26.81,-6.25,1.10,8.50
28602,-0.56,107.60,-24.00,-5.52,0.47,8.21
28608,-4.00,117.96,-22.31,-6.16,0.42,8.01
28615,-7.38,126.52,-24.31,-6.28,1.07,8.20
28627,-17.88,135.18,-26.44,-5.23,1.08,7.83
28635,-18.94,145.48,-30.50,-6.30,1.10,7.89
28641,-20.44,159.16,-43.50,-5.53,0.83,7.70
28648,-20.44,175.51,-43.50,-5.68,0.57,8.03
28656,-20.81,190.29,-54.69,-6.32,0.48,9.61
28663,-7.31,204.20,-65.19,-8.05,0.99,9.93
28670,-5.81,220.97,-75.19,-8.09,0.71,9.86
28677,15.62,242.99,-92.44,-8.49,0.53,10.50
28684,15.62,267.77,-92.44,-10.58,0.21,11.20
28690,41.19,288.04,-100.06,-10.48,0.31,11.45
28699,60.56,302.37,-107.12,-13.20,1.09,10.68
28917,76.81,311.32,-112.94,-12.92,2.14,9.45
28951,76.75,307.08,-125.00,-13.04,0.80,10.60
28958,76.75,286.88,-125.00,-14.59,1.25,9.53
28966,89.44,259.52,-119.69,-10.29,6.23,18.07
28974,72.56,224.09,-118.06,-5.80,7.10,18.31
28980,58.81,171.92,-115.44,-6.23,8.34,14.62
28987,-0.88,102.41,-110.38,-5.23,9.87,13.08
28997,-0.88,31.41,-110.38,-2.64,8.40,9.46
29003,-17.94,-18.89,-95.06,-0.72,7.04,9.26
29009,-33.12,-45.75,-73.62,-0.71,6.67,8.93
29016,-7.12,-60.66,-16.75,-0.84,6.43,8.82
29022,-6.19,-72.99,6.25,-1.09,5.71,8.86
29030,-6.19,-84.56,6.25,-3.42,5.40,9.18
29063,8.69,-93.81,24.25,-3.83,4.85,9.26
29070,14.81,-106.49,42.94,-3.21,4.10,9.40
29079,15.00,-128.70,47.25,-5.98,2.45,9.65
29087,15.00,-153.77,47.25,-5.36,2.08,9.62
29094,27.50,-173.43,49.69,-5.85,2.28,9.25
29145,46.88,-190.55,50.50,-6.02,2.79,8.55
29196,45.56,-210.70,51.50,-5.47,3.06,6.91
29212,57.38,-232.92,54.75,-5.16,2.68,6.32
29239,60.25,-249.72,61.12,-6.17,2.28,5.99
29255,60.25,-256.72,61.12,-7.75,3.86,6.40
29261,78.31,-254.81,82.25,-8.39,4.96,6.58
29267,74.00,-245.59,97.19,-8.69,5.67,6.65
