time_stamp,gyro_x,gyro_y,gyro_z,accel_x,accel_y,accel_z,quat_x,quat_y,quat_z,quat_w
2610,2.17,-0.62,-0.60,1.52,-1.88,9.40
2615,2.21,-0.44,-0.44,1.45,-1.87,9.42
2620,2.23,-0.33,-0.30,1.38,-1.83,9.45
2625,2.22,-0.31,-0.33,1.36,-1.79,9.47
2630,2.13,-0.35,-0.48,1.38,-1.77,9.47
2635,2.09,-0.36,-0.52,1.39,-1.76,9.47
2640,1.98,-0.39,-0.61,1.42,-1.75,9.48
2646,1.67,-0.45,-0.77,1.47,-1.74,9.48
2650,1.24,-0.48,-0.94,1.52,-1.75,9.48
2655,1.00,-0.47,-1.02,1.54,-1.75,9.46
2660,0.78,-0.42,-1.14,1.57,-1.78,9.45
2665,0.76,-0.36,-1.19,1.56,-1.80,9.44
2670,0.76,-0.26,-1.24,1.54,-1.81,9.44
2675,0.89,0.10,-1.32,1.45,-1.85,9.50
2680,0.92,0.51,-1.37,1.36,-1.87,9.59
2685,0.70,0.96,-1.41,1.28,-1.88,9.68
2690,0.40,1.25,-1.45,1.23,-1.89,9.74
2695,0.16,1.35,-1.48,1.23,-1.89,9.76
2700,-0.12,1.40,-1.52,1.23,-1.88,9.78
2705,-0.41,1.18,-1.54,1.31,-1.87,9.76
2710,-0.58,0.66,-1.48,1.52,-1.85,9.71
2715,-0.60,0.52,-1.44,1.58,-1.84,9.69
2720,-0.61,0.30,-1.33,1.68,-1.84,9.66
2725,-0.59,0.15,-1.17,1.78,-1.83,9.62
2730,-0.57,0.05,-0.98,1.86,-1.83,9.60
2736,-0.58,-0.02,-0.53,1.96,-1.83,9.55
2740,-0.60,-0.03,-0.21,2.00,-1.83,9.52
2745,-0.65,-0.03,0.15,2.03,-1.84,9.49
2750,-0.77,0.02,0.54,2.05,-1.85,9.47
2755,-0.94,0.15,1.05,2.09,-1.86,9.45
2760,-1.10,0.31,1.49,2.14,-1.87,9.44
2765,-1.17,0.43,1.79,2.18,-1.88,9.44
2770,-1.23,0.49,1.96,2.21,-1.88,9.43
2775,-1.36,0.52,2.14,2.24,-1.88,9.42
2780,-1.62,0.52,2.25,2.27,-1.87,9.41
2785,-1.81,0.50,2.25,2.26,-1.87,9.40
2790,-1.98,0.49,2.23,2.26,-1.86,9.40
2795,-2.27,0.47,2.15,2.23,-1.85,9.39
2801,-2.54,0.45,2.05,2.18,-1.84,9.38
2805,-2.72,0.44,1.96,2.13,-1.84,9.37
2810,-2.87,0.43,1.88,2.08,-1.84,9.37
2815,-3.01,0.42,1.82,2.02,-1.86,9.37
2821,-3.07,0.41,1.80,2.00,-1.87,9.38
2825,-3.14,0.39,1.82,1.99,-1.88,9.39
2830,-3.18,0.35,1.91,2.00,-1.89,9.39
2836,-3.17,0.29,2.15,2.03,-1.91,9.40
2840,-3.12,0.25,2.40,2.06,-1.92,9.40
2845,-2.97,0.24,2.79,2.10,-1.93,9.39
2850,-2.78,0.26,3.16,2.14,-1.93,9.39
2855,-2.53,0.41,3.53,2.15,-1.93,9.39
2860,-2.44,0.49,3.65,2.16,-1.93,9.39
2865,-2.33,0.67,3.79,2.16,-1.92,9.39
2871,-2.23,0.95,3.89,2.15,-1.92,9.39
2875,-2.15,1.51,3.91,2.08,-1.90,9.39
2880,-2.16,1.67,3.88,2.05,-1.90,9.39
2885,-2.21,1.86,3.81,2.00,-1.89,9.38
2890,-2.30,2.09,3.69,1.93,-1.87,9.37
2895,-2.39,2.25,3.59,1.88,-1.84,9.36
2901,-2.52,2.44,3.45,1.83,-1.81,9.34
2905,-2.89,2.88,3.06,1.77,-1.73,9.29
2910,-3.02,3.04,2.93,1.77,-1.72,9.29
2915,-3.15,3.21,2.79,1.77,-1.71,9.29
2920,-3.36,3.49,2.58,1.78,-1.70,9.30
2925,-3.52,3.71,2.42,1.78,-1.70,9.31
2930,-3.66,3.89,2.29,1.79,-1.71,9.32
2936,-4.24,4.46,1.80,1.81,-1.77,9.36
2940,-4.58,4.65,1.59,1.82,-1.82,9.38
2945,-4.72,4.71,1.51,1.83,-1.84,9.38
2951,-5.07,4.81,1.39,1.83,-1.89,9.39
2955,-5.30,4.85,1.33,1.83,-1.92,9.40
2960,-5.49,4.90,1.31,1.83,-1.95,9.40
2965,-5.80,4.99,1.34,1.83,-1.98,9.39
2970,-5.96,5.09,1.40,1.83,-1.99,9.38
2975,-6.05,5.20,1.45,1.83,-1.99,9.38
2980,-6.18,5.44,1.57,1.83,-2.00,9.37
2985,-6.27,5.68,1.66,1.83,-2.01,9.36
2990,-6.36,6.07,1.78,1.83,-2.01,9.35
2995,-6.46,6.74,1.95,1.83,-2.01,9.32
3000,-6.51,7.38,2.11,1.83,-2.01,9.30
3005,-6.52,7.66,2.20,1.82,-2.01,9.30
3010,-6.53,8.10,2.34,1.81,-2.01,9.30
3015,-6.55,8.29,2.41,1.79,-2.01,9.30
3020,-6.58,8.51,2.51,1.78,-2.01,9.30
3025,-6.77,9.00,2.70,1.73,-2.01,9.30
3030,-7.43,9.72,2.96,1.63,-2.01,9.31
3035,-7.77,9.94,3.03,1.59,-2.01,9.32
3040,-8.15,10.14,3.10,1.55,-2.02,9.33
3045,-8.74,10.38,3.17,1.50,-2.04,9.36
3050,-9.28,10.65,3.21,1.48,-2.06,9.38
3055,-9.49,10.78,3.22,1.47,-2.07,9.38
3060,-9.88,11.02,3.21,1.49,-2.09,9.37
3065,-10.03,11.12,3.18,1.50,-2.09,9.36
3070,-10.28,11.26,3.10,1.51,-2.10,9.35
3075,-11.04,11.49,2.79,1.54,-2.12,9.33
3080,-11.66,11.59,2.54,1.55,-2.13,9.31
3085,-12.20,11.64,2.32,1.56,-2.14,9.30
3090,-12.83,11.71,2.10,1.56,-2.15,9.28
3095,-13.52,11.77,1.94,1.56,-2.16,9.24
3101,-13.98,11.84,1.88,1.56,-2.17,9.21
3106,-14.41,11.95,1.97,1.53,-2.17,9.19
3110,-14.55,12.01,2.04,1.52,-2.17,9.19
3115,-14.65,12.07,2.12,1.50,-2.17,9.20
3120,-14.83,12.20,2.31,1.45,-2.16,9.23
3125,-15.22,12.44,2.80,1.37,-2.17,9.30
3130,-15.35,12.53,3.07,1.36,-2.18,9.33
3135,-15.51,12.63,3.48,1.34,-2.19,9.35
3140,-15.71,12.84,4.28,1.33,-2.21,9.38
3145,-15.77,13.02,4.73,1.33,-2.23,9.40
3151,-15.85,13.31,5.27,1.33,-2.24,9.41
3156,-16.12,14.43,6.44,1.35,-2.27,9.43
3160,-16.39,15.20,6.92,1.38,-2.28,9.43
3165,-16.68,15.83,7.24,1.40,-2.29,9.43
3170,-17.07,16.68,7.62,1.44,-2.30,9.42
3175,-17.65,18.00,8.13,1.49,-2.31,9.40
3180,-17.79,18.40,8.30,1.50,-2.31,9.39
3185,-18.20,20.12,9.19,1.54,-2.33,9.35
3190,-18.37,21.13,9.81,1.56,-2.34,9.33
3195,-18.47,21.95,10.36,1.58,-2.36,9.31
3200,-18.66,23.57,11.50,1.61,-2.38,9.28
3205,-19.19,26.59,13.93,1.65,-2.38,9.25
3210,-19.83,28.71,16.04,1.67,-2.37,9.25
3215,-20.15,29.97,17.23,1.68,-2.36,9.26
3220,-20.25,30.26,17.54,1.68,-2.36,9.26
3225,-20.51,31.09,18.40,1.68,-2.35,9.27
3230,-20.74,32.58,19.60,1.68,-2.35,9.29
3235,-20.94,35.31,21.35,1.69,-2.35,9.31
3240,-20.95,37.92,22.75,1.72,-2.34,9.33
3245,-20.94,38.41,23.00,1.73,-2.34,9.34
3250,-20.89,39.59,23.56,1.74,-2.34,9.35
3255,-20.80,41.60,24.43,1.79,-2.32,9.37
3260,-20.71,44.41,25.54,1.84,-2.27,9.41
3265,-20.79,54.31,30.04,1.95,-2.06,9.56
3270,-20.87,56.31,31.13,1.96,-2.03,9.59
3275,-21.05,59.48,32.93,1.98,-1.98,9.64
3280,-22.00,66.98,37.79,2.01,-1.90,9.75
3285,-24.00,77.55,45.60,2.04,-1.82,9.93
3290,-25.51,82.97,50.15,2.04,-1.79,10.02
3295,-28.48,91.23,58.06,2.05,-1.78,10.16
3300,-32.29,99.23,67.02,2.03,-1.78,10.33
3305,-40.73,111.41,83.36,1.92,-1.80,10.56
3310,-45.41,116.18,91.06,1.82,-1.82,10.63
3315,-51.98,122.12,101.72,1.66,-1.86,10.71
3320,-64.56,130.63,121.90,1.27,-2.08,10.76
3325,-66.39,131.86,124.93,1.21,-2.13,10.76
3330,-75.47,138.78,142.40,0.86,-2.58,10.86
3336,-85.47,149.54,168.35,0.49,-3.68,11.17
3340,-86.36,152.48,173.43,0.50,-4.00,11.32
3345,-86.31,155.26,176.90,0.56,-4.26,11.46
3350,-83.98,161.79,182.05,0.82,-4.75,11.79
3355,-77.77,168.16,183.85,1.36,-5.13,12.15
3360,-58.80,173.61,179.03,2.56,-5.34,12.51
3365,-49.82,175.66,175.21,3.13,-5.40,12.60
3370,-47.18,175.65,173.81,3.29,-5.40,12.62
3375,-41.55,174.34,170.14,3.64,-5.36,12.66
3380,-31.40,169.82,162.13,4.26,-5.19,12.70
3385,-12.58,150.84,142.92,5.46,-4.68,12.71
3390,0.90,110.72,120.92,6.29,-3.97,12.58
3395,6.98,17.23,94.18,6.66,-2.83,11.27
3400,6.81,-1.12,90.75,6.66,-2.66,10.84
3405,6.01,-33.90,86.23,6.62,-2.42,9.94
3410,2.09,-92.56,82.29,6.36,-2.30,7.77
3415,1.32,-103.42,82.78,6.25,-2.55,7.36
3420,0.70,-108.85,83.89,6.08,-3.22,7.31
3425,0.59,-109.49,84.21,6.04,-3.43,7.34
3430,0.52,-109.86,84.41,6.01,-3.57,7.36
3435,0.34,-110.73,84.82,5.94,-3.90,7.44
3440,-0.14,-112.30,83.81,5.73,-4.71,7.74
3445,-0.50,-114.05,81.77,5.59,-5.12,7.88
3451,-1.08,-119.28,76.26,5.39,-5.45,7.96
3455,-1.44,-122.18,73.04,5.29,-5.53,7.95
3460,-2.98,-130.78,63.19,4.98,-5.64,7.78
3465,-4.26,-135.96,56.72,4.77,-5.66,7.64
3470,-6.97,-143.31,45.78,4.42,-5.62,7.37
3475,-8.57,-146.20,40.14,4.25,-5.59,7.24
3480,-10.39,-148.50,34.67,4.10,-5.56,7.13
3486,-11.93,-150.04,30.68,3.99,-5.53,7.07
3490,-17.61,-153.71,17.59,3.71,-5.53,7.05
3495,-21.05,-155.07,10.39,3.59,-5.57,7.11
3502,-22.73,-155.63,6.94,3.54,-5.61,7.19
3506,-26.90,-156.79,-1.97,3.40,-5.78,7.49
3510,-28.41,-157.20,-5.56,3.35,-5.85,7.62
3515,-31.58,-157.93,-13.48,3.23,-6.00,7.93
3521,-33.46,-158.24,-18.39,3.16,-6.07,8.10
3525,-37.60,-158.64,-29.57,2.98,-6.20,8.49
3530,-39.12,-158.68,-33.84,2.91,-6.24,8.64
3536,-40.87,-158.68,-39.09,2.81,-6.27,8.82
3540,-43.82,-158.55,-48.91,2.55,-6.31,9.14
3545,-45.17,-158.33,-54.07,2.37,-6.33,9.29
3552,-45.97,-157.94,-57.47,2.21,-6.36,9.38
3556,-46.45,-157.51,-59.54,2.11,-6.40,9.42
3560,-46.73,-156.98,-60.79,2.04,-6.44,9.44
3565,-47.11,-156.21,-62.40,1.96,-6.49,9.47
3571,-48.61,-154.07,-68.35,1.77,-6.66,9.53
3575,-49.76,-152.23,-73.55,1.65,-6.79,9.58
3580,-51.44,-149.29,-82.43,1.49,-7.02,9.66
3586,-52.74,-145.52,-92.11,1.33,-7.27,9.73
3590,-53.05,-143.40,-96.49,1.27,-7.37,9.77
3595,-53.13,-140.35,-101.66,1.19,-7.48,9.81
3600,-52.66,-135.86,-106.79,1.11,-7.54,9.87
3605,-51.84,-131.27,-111.75,1.06,-7.51,9.93
3610,-51.02,-127.88,-115.98,1.03,-7.40,10.00
3615,-49.95,-123.99,-122.19,1.02,-7.21,10.11
3620,-49.36,-122.14,-126.55,1.01,-7.09,10.17
3625,-48.99,-121.01,-129.68,1.01,-7.00,10.22
3630,-47.24,-115.42,-146.87,0.98,-6.61,10.50
3636,-46.77,-113.57,-153.77,0.96,-6.49,10.64
3640,-46.61,-112.78,-156.98,0.94,-6.46,10.71
3645,-46.40,-111.37,-160.69,0.89,-6.38,10.81
3651,-46.26,-110.06,-162.25,0.82,-6.31,10.87
3655,-46.14,-108.99,-162.87,0.76,-6.23,10.91
3660,-45.73,-106.11,-162.35,0.61,-5.99,10.97
3665,-45.23,-103.49,-161.04,0.46,-5.74,11.01
3671,-44.83,-101.66,-159.84,0.34,-5.57,11.04
3675,-43.90,-98.58,-157.41,0.11,-5.30,11.10
3680,-42.97,-96.98,-155.61,-0.07,-5.17,11.14
3686,-42.44,-96.59,-154.41,-0.13,-5.08,11.15
3690,-41.89,-96.34,-153.02,-0.18,-5.00,11.15
3695,-39.30,-95.25,-144.72,-0.37,-4.46,11.11
3701,-38.56,-94.95,-141.94,-0.42,-4.28,11.10
3705,-37.07,-94.27,-136.09,-0.51,-3.91,11.06
3710,-34.08,-92.55,-124.11,-0.71,-3.22,10.93
3715,-31.91,-91.01,-114.75,-0.86,-2.74,10.79
3720,-30.86,-90.14,-109.79,-0.94,-2.53,10.69
3725,-27.86,-86.92,-93.86,-1.22,-1.97,10.25
3730,-27.34,-86.06,-90.63,-1.29,-1.88,10.11
3735,-26.18,-83.89,-82.94,-1.46,-1.73,9.79
3740,-25.90,-83.29,-81.44,-1.50,-1.70,9.71
3745,-25.85,-83.06,-81.72,-1.50,-1.68,9.68
3750,-25.41,-82.28,-79.38,-1.55,-1.67,9.58
3755,-21.74,-77.89,-53.31,-1.89,-1.71,9.25
3760,-20.86,-76.95,-46.30,-1.98,-1.74,9.17
3765,-18.76,-74.77,-29.87,-2.21,-1.83,9.00
3770,-18.30,-74.31,-26.47,-2.26,-1.85,8.96
3775,-17.67,-73.68,-21.89,-2.33,-1.89,8.91
3780,-16.13,-72.09,-10.54,-2.49,-2.01,8.79
3785,-12.67,-67.44,22.03,-2.93,-2.72,8.32
3790,-12.19,-66.86,26.18,-3.00,-3.00,7.93
3795,-12.03,-66.78,27.04,-3.02,-3.07,7.79
3800,-11.94,-66.75,27.53,-3.03,-3.11,7.70
3805,-11.85,-66.74,28.02,-3.03,-3.16,7.61
3810,-11.35,-66.69,30.12,-3.07,-3.36,7.13
3815,-9.31,-65.45,32.42,-3.09,-3.76,6.20
3820,-8.55,-64.85,32.79,-3.08,-3.84,6.00
3825,-7.23,-63.61,33.43,-3.08,-3.97,5.70
3830,-1.85,-54.94,35.42,-2.97,-4.26,5.09
3836,-0.89,-52.20,35.98,-2.93,-4.33,5.04
3840,0.36,-48.19,36.79,-2.87,-4.39,5.00
3845,1.67,-39.53,38.41,-2.70,-4.57,5.06
3851,2.23,-27.25,40.43,-2.42,-4.96,5.22
3855,2.20,-24.48,40.83,-2.34,-5.06,5.27
3860,1.96,-18.55,41.64,-2.16,-5.28,5.37
3865,1.78,-16.05,41.94,-2.08,-5.36,5.41
3870,1.55,-13.32,42.23,-1.97,-5.44,5.46
3875,0.81,-7.87,42.78,-1.70,-5.58,5.54
3880,0.04,-3.30,43.04,-1.47,-5.66,5.58
3886,-0.51,-0.93,43.09,-1.36,-5.69,5.59
3890,-1.93,4.14,43.05,-1.14,-5.73,5.60
3895,-5.07,12.98,42.48,-0.89,-5.75,5.59
3902,-7.50,19.24,41.62,-0.71,-5.77,5.61
3906,-9.37,24.13,40.61,-0.55,-5.80,5.64
3910,-10.76,28.21,39.48,-0.38,-5.85,5.68
3915,-12.87,36.00,36.46,-0.01,-6.07,5.84
3921,-13.92,42.16,33.33,0.35,-6.33,5.99
3925,-14.32,47.53,30.58,0.64,-6.55,6.13
3930,-14.49,53.24,27.63,0.93,-6.74,6.28
3936,-14.52,54.66,26.87,1.00,-6.79,6.31
3940,-14.55,56.71,25.76,1.07,-6.84,6.37
3945,-14.57,58.74,24.63,1.10,-6.81,6.44
3952,-14.52,61.89,22.79,1.18,-6.67,6.54
3956,-14.02,74.03,10.90,1.85,-5.78,7.07
3960,-13.64,75.71,8.45,2.09,-5.60,7.16
3965,-11.31,81.50,-0.72,3.10,-5.05,7.40
3970,-9.76,84.10,-5.81,3.78,-4.90,7.47
3975,-7.50,86.82,-11.58,4.55,-4.76,7.53
3980,-1.33,93.85,-27.50,5.89,-4.21,7.57
3986,6.45,101.51,-45.29,6.68,-3.15,7.57
3990,11.24,105.33,-54.15,6.82,-2.30,7.56
3995,19.10,111.62,-66.94,6.78,-0.79,7.55
4000,28.69,121.07,-78.59,6.15,1.14,7.56
4005,33.31,127.08,-80.91,5.63,2.04,7.58
4010,37.51,135.97,-77.45,4.90,2.77,7.64
4015,45.60,154.11,-51.57,3.68,3.20,7.82
4021,46.36,155.38,-48.22,3.61,3.20,7.83
4025,47.73,157.26,-42.39,3.51,3.19,7.86
4030,51.59,160.00,-26.90,3.34,3.08,7.91
4035,54.68,159.79,-16.04,3.29,2.97,7.93
4040,59.54,155.70,-5.51,3.34,2.83,7.94
4045,74.56,141.58,3.32,3.73,2.65,7.91
4051,76.18,140.45,3.51,3.78,2.64,7.90
4055,78.73,138.88,3.71,3.87,2.64,7.88
4060,86.60,135.70,3.83,4.15,2.62,7.82
4065,89.67,134.46,3.67,4.30,2.65,7.78
4070,93.34,133.22,3.19,4.47,2.71,7.72
4075,109.36,131.00,-0.56,5.06,3.26,7.72
4080,121.95,130.39,-4.92,5.47,4.21,7.95
4085,145.27,129.04,-15.19,5.97,6.54,8.78
4090,161.29,127.88,-23.38,6.18,8.47,9.64
4095,181.08,125.36,-32.10,6.23,10.81,10.76
4100,197.05,117.06,-35.83,5.80,13.40,12.22
4105,187.36,102.52,-26.07,4.73,14.23,12.97
4110,178.28,96.13,-21.42,4.38,14.30,13.10
4115,170.10,92.21,-18.36,4.18,14.20,13.11
4120,141.26,80.76,-9.37,3.65,13.38,12.87
4125,61.49,51.49,12.95,2.86,9.74,11.63
4130,55.43,49.63,14.78,2.83,9.26,11.50
4135,35.90,43.84,20.34,2.75,6.72,10.93
4140,32.98,42.88,20.63,2.74,5.15,10.66
4145,31.65,42.42,19.88,2.73,3.57,10.41
4151,34.76,43.33,16.57,2.68,2.10,10.13
4155,37.78,44.45,11.87,2.60,0.56,9.84
4160,32.63,44.17,7.99,2.47,-1.00,9.58
4165,29.19,43.80,6.67,2.42,-1.53,9.52
4170,22.29,41.85,5.08,2.35,-2.19,9.48
4175,15.48,38.95,3.71,2.29,-2.58,9.48
4180,8.89,34.10,2.16,2.26,-2.76,9.48
4185,3.34,28.32,1.38,2.24,-2.61,9.49
4190,2.53,27.12,1.53,2.23,-2.52,9.49
4195,2.02,26.42,1.67,2.22,-2.45,9.51
4201,1.62,25.85,1.79,2.21,-2.40,9.52
4206,0.75,23.85,2.17,2.18,-2.23,9.56
4210,0.53,22.99,2.32,2.15,-2.17,9.58
4215,-0.00,20.20,2.58,2.08,-2.04,9.61
4221,-0.22,18.43,2.63,2.02,-2.00,9.63
4225,-0.30,17.70,2.63,1.99,-1.99,9.63
4230,-0.35,17.25,2.63,1.97,-1.99,9.63
4236,-0.43,16.25,2.61,1.93,-1.99,9.63
4241,-0.49,14.55,2.56,1.88,-2.00,9.61
4245,-0.51,13.75,2.54,1.87,-2.01,9.58
4250,-0.37,12.42,2.51,1.89,-2.03,9.46
4255,-0.22,11.94,2.50,1.92,-2.05,9.40
4260,0.11,11.32,2.49,1.96,-2.06,9.32
4265,0.66,10.77,2.49,2.00,-2.08,9.23
4271,2.37,9.49,2.53,2.08,-2.10,9.14
4276,2.73,9.27,2.55,2.09,-2.10,9.14
4281,3.68,8.78,2.64,2.08,-2.09,9.19
4285,3.90,8.67,2.67,2.05,-2.08,9.22
4290,4.00,8.62,2.69,2.03,-2.08,9.24
4295,4.11,8.51,2.72,2.00,-2.07,9.27
4301,4.08,8.33,2.75,1.94,-2.05,9.32
4306,4.02,8.22,2.75,1.91,-2.04,9.35
4310,3.76,7.96,2.71,1.85,-2.00,9.38
4316,3.64,7.88,2.68,1.84,-1.98,9.39
4321,3.55,7.82,2.65,1.83,-1.97,9.39
4325,2.69,7.40,2.26,1.78,-1.91,9.41
4330,1.90,7.04,1.85,1.76,-1.88,9.41
4336,1.59,6.85,1.68,1.76,-1.88,9.41
4340,0.82,6.17,1.23,1.74,-1.88,9.40
4345,0.66,5.94,1.11,1.73,-1.88,9.40
4351,0.57,5.79,1.05,1.72,-1.89,9.40
4355,0.38,5.41,0.90,1.71,-1.89,9.41
4360,0.16,4.84,0.70,1.68,-1.90,9.42
4366,0.07,4.48,0.59,1.66,-1.91,9.43
4370,-0.00,3.51,0.38,1.63,-1.93,9.42
4375,0.01,3.32,0.37,1.63,-1.93,9.41
4380,0.01,3.21,0.36,1.62,-1.93,9.40
4385,0.04,2.79,0.33,1.62,-1.93,9.38
4390,0.09,2.38,0.33,1.62,-1.93,9.35
4395,0.12,2.26,0.33,1.62,-1.93,9.34
4400,0.55,1.19,0.57,1.65,-1.93,9.30
4405,0.60,1.12,0.61,1.65,-1.93,9.30
4410,0.66,1.03,0.65,1.66,-1.93,9.30
4415,0.79,0.88,0.76,1.68,-1.92,9.30
4421,0.99,0.70,0.93,1.72,-1.92,9.30
4425,1.09,0.62,1.03,1.73,-1.93,9.30
4430,1.32,0.52,1.25,1.77,-1.93,9.32
4435,1.38,0.44,1.33,1.78,-1.93,9.36
4440,1.40,0.38,1.37,1.78,-1.93,9.39
4445,1.42,0.32,1.39,1.79,-1.93,9.41
4451,1.43,0.27,1.41,1.79,-1.93,9.43
4455,1.43,0.24,1.41,1.79,-1.93,9.44
4460,1.39,0.14,1.39,1.78,-1.93,9.47
4465,1.38,0.11,1.38,1.78,-1.93,9.47
4470,1.36,0.05,1.35,1.77,-1.93,9.49
4475,1.29,-0.13,1.29,1.76,-1.93,9.53
4480,1.25,-0.25,1.25,1.75,-1.93,9.55
4486,1.14,-0.49,1.15,1.73,-1.93,9.58
4490,0.75,-1.14,0.85,1.68,-1.91,9.60
4495,0.65,-1.28,0.77,1.68,-1.91,9.59
4501,0.48,-1.49,0.64,1.67,-1.89,9.56
4505,0.32,-1.62,0.49,1.67,-1.87,9.53
4510,0.28,-1.65,0.45,1.67,-1.87,9.53
4516,0.24,-1.67,0.41,1.67,-1.86,9.53
4520,0.08,-1.70,0.35,1.67,-1.86,9.54
4525,-0.07,-1.75,0.28,1.68,-1.87,9.54
4530,-0.17,-1.78,0.21,1.70,-1.87,9.53
4535,-0.22,-1.79,0.15,1.70,-1.88,9.52
4540,-0.23,-1.80,0.13,1.70,-1.88,9.52
4545,-0.28,-1.81,0.06,1.71,-1.88,9.52
4550,-0.39,-1.82,-0.08,1.73,-1.89,9.50
4555,-0.46,-1.82,-0.18,1.75,-1.89,9.49
4560,-0.56,-1.82,-0.28,1.79,-1.88,9.45
4566,-0.67,-1.80,-0.37,1.83,-1.87,9.38
4571,-0.71,-1.78,-0.40,1.85,-1.87,9.34
4575,-0.76,-1.76,-0.42,1.88,-1.86,9.29
4580,-0.81,-1.72,-0.43,1.90,-1.86,9.25
4585,-0.83,-1.69,-0.44,1.90,-1.86,9.24
4590,-0.83,-1.66,-0.44,1.90,-1.87,9.23
4595,-0.83,-1.60,-0.44,1.88,-1.87,9.24
4601,-0.84,-1.55,-0.44,1.86,-1.87,9.25
4605,-0.85,-1.48,-0.44,1.85,-1.88,9.26
4610,-0.90,-1.37,-0.44,1.82,-1.88,9.27
4615,-0.95,-1.32,-0.44,1.80,-1.88,9.28
4620,-1.03,-1.28,-0.44,1.79,-1.88,9.29
4625,-1.11,-1.27,-0.45,1.79,-1.89,9.31
4630,-1.27,-1.28,-0.51,1.79,-1.91,9.35
4636,-1.34,-1.28,-0.55,1.80,-1.92,9.38
4640,-1.44,-1.30,-0.67,1.81,-1.93,9.41
4645,-1.49,-1.30,-0.76,1.82,-1.94,9.43
4651,-1.51,-1.31,-0.80,1.82,-1.94,9.43
4655,-1.54,-1.31,-0.87,1.82,-1.95,9.44
4660,-1.55,-1.30,-0.92,1.83,-1.95,9.43
4665,-1.54,-1.29,-0.90,1.83,-1.95,9.43
4671,-1.52,-1.27,-0.87,1.83,-1.95,9.43
4675,-1.47,-1.22,-0.77,1.83,-1.95,9.42
4680,-1.42,-1.19,-0.70,1.83,-1.95,9.42
4685,-1.34,-1.14,-0.62,1.82,-1.95,9.41
4690,-1.13,-1.05,-0.43,1.80,-1.94,9.40
4695,-1.06,-1.02,-0.37,1.79,-1.94,9.39
4701,-0.99,-1.00,-0.32,1.78,-1.94,9.39
4705,-0.92,-0.97,-0.27,1.76,-1.93,9.39
4710,-0.89,-0.95,-0.23,1.76,-1.93,9.40
4715,-0.87,-0.94,-0.21,1.75,-1.93,9.40
4720,-0.86,-0.86,-0.14,1.73,-1.92,9.42
4725,-0.88,-0.76,-0.12,1.71,-1.91,9.43
4730,-0.89,-0.70,-0.12,1.70,-1.91,9.43
4736,-0.94,-0.55,-0.11,1.68,-1.90,9.45
4740,-0.96,-0.46,-0.11,1.66,-1.90,9.47
4745,-0.99,-0.38,-0.11,1.65,-1.90,9.49
4751,-1.06,-0.22,-0.09,1.60,-1.90,9.57
4755,-1.09,-0.18,-0.08,1.59,-1.91,9.59
4760,-1.10,-0.16,-0.07,1.58,-1.91,9.61
4765,-1.10,-0.12,-0.06,1.57,-1.92,9.62
4770,-1.09,-0.10,-0.05,1.55,-1.93,9.63
4775,-1.07,-0.08,-0.04,1.54,-1.94,9.63
4781,-0.98,-0.05,-0.01,1.51,-1.96,9.64
4786,-0.90,-0.04,0.01,1.49,-1.97,9.64
4790,-0.87,-0.05,0.02,1.48,-1.97,9.64
4795,-0.82,-0.11,0.03,1.48,-1.98,9.63
4800,-0.77,-0.18,0.04,1.49,-1.98,9.62
4805,-0.64,-0.38,0.06,1.50,-1.98,9.58
4810,-0.47,-0.74,0.09,1.53,-1.98,9.51
4815,-0.37,-0.92,0.11,1.55,-1.98,9.49
4820,-0.35,-0.95,0.11,1.55,-1.98,9.48
4825,-0.32,-1.00,0.12,1.55,-1.98,9.48
4830,-0.23,-1.10,0.14,1.56,-1.97,9.46
4835,-0.04,-1.25,0.18,1.58,-1.96,9.43
4840,0.02,-1.30,0.19,1.58,-1.96,9.43
4845,0.04,-1.31,0.19,1.58,-1.96,9.42
4851,0.06,-1.32,0.19,1.58,-1.96,9.42
4855,0.08,-1.33,0.18,1.58,-1.96,9.42
4860,0.12,-1.34,0.18,1.58,-1.95,9.42
4865,0.15,-1.33,0.17,1.58,-1.95,9.42
4870,0.17,-1.31,0.17,1.57,-1.95,9.42
4875,0.20,-1.25,0.14,1.57,-1.93,9.42
4880,0.19,-1.19,0.10,1.56,-1.92,9.43
4885,0.16,-1.13,0.06,1.54,-1.92,9.43
4890,0.15,-1.07,0.02,1.52,-1.92,9.45
4895,0.16,-1.03,-0.03,1.51,-1.92,9.47
4900,0.16,-1.03,-0.04,1.50,-1.92,9.48
4905,0.17,-1.06,-0.08,1.50,-1.92,9.49
4910,0.18,-1.14,-0.12,1.51,-1.92,9.49
4916,0.18,-1.23,-0.16,1.52,-1.92,9.49
4921,0.21,-1.44,-0.27,1.57,-1.92,9.49
4925,0.26,-1.59,-0.43,1.63,-1.92,9.48
4930,0.28,-1.62,-0.49,1.64,-1.92,9.47
4935,0.30,-1.64,-0.54,1.65,-1.92,9.47
4940,0.34,-1.66,-0.62,1.66,-1.92,9.46
4945,0.42,-1.68,-0.73,1.67,-1.92,9.43
4951,0.47,-1.67,-0.78,1.67,-1.92,9.41
4955,0.51,-1.66,-0.82,1.67,-1.92,9.39
4960,0.56,-1.65,-0.85,1.66,-1.92,9.37
4965,0.62,-1.65,-0.89,1.64,-1.91,9.35
4970,0.66,-1.66,-0.92,1.63,-1.91,9.34
4975,0.68,-1.68,-0.95,1.62,-1.90,9.33
4980,0.69,-1.69,-0.99,1.61,-1.90,9.33
4985,0.70,-1.71,-1.08,1.61,-1.90,9.33
4990,0.70,-1.72,-1.19,1.60,-1.90,9.34
4995,0.70,-1.73,-1.38,1.59,-1.89,9.35
5000,0.69,-1.74,-1.48,1.59,-1.89,9.36
5005,0.69,-1.74,-1.53,1.58,-1.89,9.36
5010,0.69,-1.74,-1.59,1.57,-1.90,9.38
5016,0.69,-1.73,-1.63,1.56,-1.90,9.39
5020,0.71,-1.69,-1.67,1.55,-1.90,9.42
5025,0.75,-1.63,-1.66,1.55,-1.91,9.45
5030,0.77,-1.58,-1.65,1.55,-1.92,9.46
5036,0.77,-1.55,-1.63,1.55,-1.92,9.47
5040,0.80,-1.46,-1.57,1.54,-1.92,9.49
5045,0.83,-1.37,-1.53,1.54,-1.93,9.50
5051,0.89,-1.22,-1.47,1.53,-1.93,9.51
5055,1.03,-0.97,-1.35,1.53,-1.92,9.52
5060,1.09,-0.84,-1.27,1.54,-1.92,9.52
5065,1.15,-0.71,-1.18,1.54,-1.92,9.52
5071,1.24,-0.47,-1.00,1.55,-1.92,9.53
5075,1.31,-0.17,-0.78,1.55,-1.92,9.53
5080,1.33,-0.05,-0.70,1.55,-1.93,9.53
5085,1.32,0.18,-0.59,1.57,-1.94,9.53
5090,1.30,0.29,-0.56,1.59,-1.94,9.53
5095,1.28,0.37,-0.55,1.61,-1.95,9.53
5101,1.21,0.50,-0.61,1.65,-1.95,9.52
5105,1.13,0.56,-0.76,1.69,-1.95,9.52
5110,1.07,0.48,-0.88,1.73,-1.93,9.50
5115,1.03,0.41,-0.91,1.76,-1.92,9.48
5120,0.93,0.19,-0.89,1.83,-1.88,9.45
5125,0.93,0.24,-0.86,1.83,-1.85,9.48
5130,1.00,0.43,-0.85,1.82,-1.83,9.52
5136,1.09,0.71,-0.84,1.79,-1.81,9.56
5140,1.14,0.92,-0.84,1.77,-1.81,9.59
5145,1.18,1.15,-0.83,1.75,-1.81,9.61
5150,1.14,1.48,-0.80,1.71,-1.85,9.68
5155,1.09,1.57,-0.80,1.70,-1.89,9.74
5160,1.06,1.59,-0.81,1.70,-1.92,9.79
5166,1.02,1.56,-0.83,1.70,-1.97,9.85
5170,1.02,1.52,-0.84,1.71,-1.98,9.84
5175,1.02,1.42,-0.85,1.72,-1.99,9.81
5180,0.97,1.16,-0.76,1.76,-2.00,9.66
5185,0.93,0.99,-0.65,1.79,-2.00,9.54
5190,0.88,0.82,-0.47,1.83,-2.00,9.42
5195,0.80,0.63,-0.15,1.89,-1.98,9.29
5201,0.73,0.56,0.07,1.93,-1.96,9.24
5205,0.63,0.52,0.30,1.99,-1.95,9.22
5210,0.38,0.49,0.60,2.09,-1.91,9.23
5216,0.02,0.47,0.79,2.17,-1.89,9.25
5220,-0.38,0.45,0.91,2.23,-1.87,9.28
5225,-0.87,0.42,0.96,2.26,-1.85,9.30
5230,-1.13,0.41,0.97,2.26,-1.85,9.31
5235,-1.46,0.39,0.97,2.26,-1.85,9.32
5240,-2.18,0.37,0.94,2.21,-1.88,9.33
5245,-2.39,0.37,0.94,2.18,-1.89,9.33
5251,-2.58,0.38,0.94,2.16,-1.91,9.33
5255,-2.72,0.40,0.95,2.13,-1.93,9.33
5260,-2.80,0.44,0.96,2.11,-1.94,9.32
5265,-2.84,0.49,0.98,2.09,-1.95,9.31
5270,-2.84,0.63,1.00,2.06,-1.97,9.29
5275,-2.82,0.72,1.03,2.05,-1.98,9.29
5280,-2.80,0.77,1.09,2.05,-1.98,9.29
5286,-2.74,0.89,1.27,2.04,-1.99,9.29
5290,-2.67,1.00,1.55,2.04,-1.99,9.29
5295,-2.60,1.09,1.80,2.03,-1.99,9.29
5301,-2.40,1.32,2.40,2.02,-1.97,9.30
5305,-2.26,1.44,2.71,2.02,-1.96,9.31
5310,-2.19,1.50,2.87,2.02,-1.95,9.32
5316,-2.04,1.57,3.15,2.02,-1.94,9.33
5321,-1.88,1.61,3.40,2.02,-1.94,9.36
5325,-1.76,1.63,3.58,2.01,-1.94,9.38
5330,-1.41,1.67,4.06,2.01,-1.94,9.41
5335,-1.23,1.70,4.33,2.02,-1.94,9.42
5340,-1.13,1.72,4.50,2.02,-1.93,9.41
5345,-1.05,1.74,4.70,2.04,-1.93,9.41
5351,-1.01,1.77,4.88,2.05,-1.94,9.41
5355,-0.99,1.79,4.97,2.05,-1.94,9.41
5360,-1.00,1.87,5.05,2.05,-1.94,9.41
5365,-1.02,1.97,5.05,2.05,-1.94,9.40
5370,-1.05,2.17,4.97,2.04,-1.94,9.39
5375,-1.13,2.46,4.81,2.02,-1.94,9.37
5380,-1.22,2.65,4.67,2.01,-1.93,9.37
5386,-1.33,2.80,4.53,2.01,-1.93,9.36
5391,-1.85,3.22,4.07,1.99,-1.92,9.36
5395,-2.24,3.44,3.78,1.98,-1.92,9.36
5400,-2.54,3.59,3.58,1.97,-1.91,9.36
5405,-2.94,3.78,3.35,1.97,-1.91,9.35
5410,-3.22,3.92,3.19,1.97,-1.90,9.34
5417,-3.42,4.02,3.11,1.97,-1.90,9.33
5421,-3.93,4.29,3.10,1.97,-1.90,9.28
5425,-4.11,4.43,3.19,1.97,-1.89,9.26
5430,-4.23,4.56,3.35,1.97,-1.90,9.24
5435,-4.40,4.75,3.55,1.97,-1.90,9.22
5440,-4.63,5.03,3.78,1.97,-1.92,9.20
5445,-4.78,5.23,3.90,1.97,-1.93,9.19
5451,-5.13,5.76,4.09,1.97,-1.97,9.17
5455,-5.40,6.15,4.16,1.97,-2.00,9.17
5460,-5.69,6.51,4.18,1.97,-2.02,9.18
5466,-6.15,7.00,4.17,1.95,-2.05,9.20
5471,-6.93,7.66,4.10,1.92,-2.07,9.24
5475,-7.28,7.97,4.06,1.91,-2.07,9.25
5480,-7.76,8.45,3.98,1.89,-2.08,9.26
5485,-9.78,10.53,3.45,1.84,-2.04,9.30
5490,-10.34,10.92,3.32,1.82,-2.02,9.31
5495,-10.77,11.17,3.24,1.81,-2.01,9.32
5501,-10.89,11.23,3.22,1.81,-2.01,9.32
5505,-11.07,11.33,3.20,1.81,-2.01,9.32
5510,-11.58,11.60,3.17,1.79,-2.00,9.33
5515,-12.49,12.03,3.28,1.78,-2.01,9.34
5520,-12.97,12.24,3.39,1.78,-2.01,9.34
5525,-14.00,12.70,3.71,1.78,-2.02,9.34
5530,-14.78,13.00,3.94,1.77,-2.03,9.34
5535,-15.03,13.10,4.01,1.77,-2.03,9.35
5540,-15.24,13.20,4.08,1.77,-2.03,9.35
5545,-16.31,13.58,4.36,1.76,-2.04,9.35
5550,-16.65,13.66,4.44,1.76,-2.04,9.35
5555,-17.68,13.88,4.73,1.75,-2.05,9.36
5560,-19.83,14.25,5.70,1.74,-2.05,9.37
5566,-20.33,14.36,6.05,1.74,-2.05,9.37
5570,-20.89,14.55,6.52,1.74,-2.05,9.37
5575,-21.48,14.86,7.13,1.74,-2.05,9.36
5580,-22.24,15.35,7.98,1.75,-2.05,9.34
5585,-22.64,15.64,8.45,1.76,-2.07,9.32
5590,-22.98,15.96,8.73,1.78,-2.08,9.30
5595,-23.09,16.09,8.78,1.79,-2.10,9.29
5600,-23.46,16.48,8.93,1.83,-2.13,9.26
5605,-24.03,17.30,9.31,1.87,-2.15,9.24
5610,-24.68,18.84,10.06,1.92,-2.17,9.22
5617,-25.28,21.47,11.58,1.95,-2.19,9.23
5621,-25.73,25.40,13.87,1.98,-2.21,9.25
5625,-25.89,28.01,15.42,1.99,-2.23,9.27
5630,-26.06,32.41,18.14,2.01,-2.26,9.30
5635,-26.20,42.68,25.17,2.09,-2.30,9.37
5640,-26.24,49.33,29.90,2.16,-2.31,9.40
5645,-26.26,53.14,32.67,2.21,-2.29,9.42
5650,-26.29,58.55,36.41,2.29,-2.24,9.45
5655,-26.31,62.08,38.78,2.34,-2.19,9.46
5660,-26.34,66.27,41.34,2.41,-2.11,9.47
5666,-26.37,73.01,43.64,2.52,-1.96,9.50
5670,-26.53,81.12,45.18,2.62,-1.82,9.57
5675,-27.34,90.52,46.43,2.70,-1.71,9.68
5680,-28.07,96.35,47.89,2.74,-1.67,9.76
5685,-29.47,103.11,51.24,2.77,-1.62,9.86
5690,-31.18,109.48,55.56,2.78,-1.59,9.95
5695,-35.96,121.72,67.83,2.72,-1.56,10.13
5701,-41.49,131.45,81.30,2.54,-1.54,10.28
5705,-58.53,151.57,116.97,1.58,-1.56,10.82
5710,-63.45,156.24,127.05,1.23,-1.65,11.14
5716,-67.19,159.62,135.58,0.93,-1.79,11.48
5721,-69.42,163.01,146.11,0.62,-2.26,12.04
5725,-66.50,165.68,156.61,0.67,-3.34,12.76
5730,-55.84,167.14,162.86,1.49,-4.58,13.33
5735,-51.38,167.48,163.54,1.88,-4.90,13.47
5740,-30.37,167.81,161.19,3.97,-5.92,13.82
5745,-21.58,167.70,158.71,4.75,-6.17,13.90
5750,-10.43,165.09,153.25,5.73,-6.28,13.91
5755,8.21,152.52,138.69,7.00,-5.94,13.66
5760,31.43,103.76,105.53,7.25,-3.69,12.26
5765,35.69,73.81,91.27,6.78,-2.30,11.27
5770,36.30,57.97,85.26,6.45,-1.62,10.74
5775,35.27,39.06,80.05,6.12,-1.01,10.20
5780,31.34,10.24,74.51,5.65,-0.54,9.54
5785,25.03,-25.61,74.05,5.31,-1.00,9.34
5790,21.87,-42.99,75.52,5.24,-1.68,9.38
5795,18.20,-65.19,80.50,5.23,-3.22,9.58
5800,16.73,-75.17,83.45,5.24,-4.27,9.74
5805,16.16,-79.63,84.38,5.27,-4.98,9.83
5810,15.56,-84.75,82.55,5.30,-5.79,9.86
5816,15.32,-87.52,78.85,5.26,-6.19,9.74
5820,15.03,-90.24,74.56,5.18,-6.49,9.55
5825,13.01,-99.32,64.01,4.81,-6.95,8.72
5830,10.98,-105.28,57.63,4.52,-7.11,8.13
5835,8.63,-110.29,52.47,4.26,-7.20,7.62
5840,4.95,-116.11,45.78,3.92,-7.25,7.04
5845,1.85,-119.50,40.29,3.70,-7.25,6.72
5850,-3.63,-123.09,31.12,3.40,-7.23,6.51
5855,-7.26,-123.95,24.79,3.26,-7.19,6.64
5860,-10.72,-123.99,18.52,3.17,-7.15,6.80
5865,-12.41,-123.80,15.28,3.15,-7.12,6.91
5870,-15.87,-123.53,8.62,3.09,-7.05,7.09
5875,-20.62,-123.43,-0.45,3.00,-6.93,7.24
5880,-25.21,-123.41,-9.09,2.89,-6.77,7.36
5885,-34.12,-123.83,-25.14,2.59,-6.40,7.62
5890,-38.18,-124.09,-32.04,2.43,-6.21,7.76
5895,-40.03,-124.22,-35.03,2.34,-6.12,7.84
5900,-43.59,-124.49,-40.73,2.18,-5.92,8.02
5905,-45.96,-124.67,-44.56,2.06,-5.73,8.17
5910,-47.65,-124.76,-47.21,1.98,-5.56,8.31
5915,-49.34,-124.67,-51.74,1.89,-5.27,8.53
5920,-50.50,-124.35,-58.03,1.78,-4.86,8.85
5925,-50.81,-124.17,-60.76,1.73,-4.74,8.99
5930,-51.07,-123.99,-63.25,1.68,-4.63,9.13
5935,-51.30,-123.81,-66.04,1.63,-4.53,9.27
5940,-51.74,-123.46,-72.02,1.49,-4.33,9.60
5945,-51.94,-123.28,-75.38,1.40,-4.23,9.79
5950,-52.09,-123.00,-82.07,1.18,-3.98,10.15
5955,-52.07,-122.91,-85.21,1.03,-3.83,10.29
5960,-51.95,-122.90,-87.21,0.89,-3.72,10.36
5965,-50.80,-122.92,-89.23,0.63,-3.59,10.39
5970,-50.52,-122.92,-89.32,0.61,-3.59,10.38
5975,-49.89,-122.94,-89.38,0.57,-3.61,10.36
5980,-43.43,-123.03,-89.07,0.44,-3.88,10.21
5985,-42.24,-123.05,-89.01,0.43,-3.93,10.18
5990,-41.58,-123.06,-88.97,0.42,-3.96,10.16
5995,-35.16,-123.21,-88.58,0.35,-4.33,9.84
6000,-34.68,-123.23,-88.55,0.33,-4.39,9.79
6005,-33.87,-122.95,-88.52,0.29,-4.63,9.56
6010,-33.60,-122.44,-88.51,0.25,-4.87,9.34
6016,-33.57,-122.02,-88.48,0.22,-5.05,9.18
6020,-33.68,-120.99,-88.43,0.19,-5.29,8.93
6025,-33.44,-117.14,-88.62,0.11,-5.93,8.39
6030,-33.34,-114.84,-88.79,0.07,-6.17,8.20
6036,-33.25,-112.00,-89.08,0.05,-6.32,8.12
6040,-33.36,-105.42,-89.98,0.01,-6.60,7.96
6045,-33.59,-100.84,-90.68,-0.02,-6.69,7.93
6051,-33.93,-98.38,-91.46,-0.03,-6.73,7.91
6055,-35.39,-92.25,-94.69,-0.06,-6.79,7.89
6060,-41.70,-84.10,-109.32,-0.13,-6.70,7.91
6067,-45.78,-83.07,-118.80,-0.15,-6.57,7.93
6070,-46.64,-82.75,-121.26,-0.16,-6.50,7.95
6075,-48.75,-82.04,-126.69,-0.18,-6.28,8.02
6080,-49.43,-81.18,-129.19,-0.19,-6.15,8.08
6085,-50.79,-75.11,-135.04,-0.24,-5.48,8.50
6090,-52.01,-69.10,-138.10,-0.29,-4.78,9.02
6095,-52.48,-67.45,-138.83,-0.31,-4.51,9.19
6101,-53.90,-62.86,-138.85,-0.38,-3.67,9.70
6105,-54.28,-61.74,-138.42,-0.40,-3.46,9.82
6110,-54.89,-59.95,-137.10,-0.46,-3.21,10.00
6116,-55.22,-57.41,-132.41,-0.61,-2.91,10.26
6120,-55.06,-57.25,-131.95,-0.62,-2.88,10.28
6125,-51.31,-56.44,-127.00,-0.80,-2.31,10.38
6130,-47.59,-56.31,-124.36,-0.93,-1.74,10.37
6135,-40.68,-56.20,-119.22,-1.18,-0.75,10.27
6140,-32.26,-54.81,-102.17,-1.55,-0.10,10.01
6145,-31.93,-54.67,-100.90,-1.57,-0.09,10.00
6151,-31.67,-54.53,-99.80,-1.58,-0.09,9.99
6155,-31.45,-54.42,-98.80,-1.60,-0.09,9.98
6160,-29.58,-53.59,-90.95,-1.68,-0.13,9.89
6166,-29.11,-53.36,-88.73,-1.70,-0.14,9.87
6170,-24.46,-51.29,-68.20,-1.84,-0.27,9.61
6175,-21.14,-50.28,-57.10,-1.90,-0.37,9.42
6180,-20.17,-49.98,-54.12,-1.91,-0.40,9.36
6186,-17.84,-49.31,-47.79,-1.95,-0.47,9.21
6190,-12.80,-48.06,-36.41,-2.01,-0.64,8.86
6195,5.37,-40.11,5.78,-2.16,-1.52,7.75
6200,7.67,-38.62,11.06,-2.16,-1.65,7.66
6205,15.82,-30.02,31.20,-2.10,-2.40,7.32
6210,20.04,-19.96,45.34,-1.87,-3.56,7.06
6217,19.46,-15.93,49.79,-1.75,-4.04,6.93
6220,18.67,-10.41,54.15,-1.58,-4.68,6.68
6225,15.78,-1.44,55.76,-1.41,-4.98,6.10
6230,15.46,-0.19,55.76,-1.40,-4.99,6.05
6235,15.13,1.52,55.68,-1.37,-4.99,6.00
6241,15.03,2.37,55.60,-1.36,-4.98,5.99
6245,14.71,4.60,55.34,-1.31,-4.98,5.95
6250,12.23,18.37,54.27,-0.82,-5.20,5.78
6255,11.89,19.87,54.16,-0.70,-5.26,5.75
6260,11.89,20.97,54.19,-0.65,-5.30,5.74
6267,11.91,21.23,54.20,-0.63,-5.31,5.74
6271,11.90,21.46,54.20,-0.62,-5.32,5.75
6275,11.79,22.22,54.16,-0.57,-5.35,5.77
6280,11.11,24.68,53.91,-0.37,-5.43,5.83
6286,7.77,30.90,52.68,0.94,-5.71,6.09
6290,6.99,31.89,52.22,1.26,-5.72,6.13
6295,6.03,33.04,51.71,1.65,-5.73,6.17
6301,5.46,33.68,51.38,1.90,-5.74,6.19
6305,5.28,33.87,51.27,1.99,-5.74,6.20
6310,4.82,34.34,50.90,2.26,-5.74,6.21
6315,4.69,34.47,50.78,2.34,-5.74,6.21
6320,4.04,35.17,49.53,2.82,-5.74,6.20
6325,3.33,35.97,46.79,3.42,-5.72,6.15
6331,3.17,36.14,46.00,3.58,-5.71,6.14
6335,2.93,36.37,44.80,3.81,-5.70,6.11
6340,2.80,36.48,44.16,3.93,-5.70,6.10
6345,2.68,36.58,43.53,4.06,-5.69,6.09
6350,2.44,36.75,42.34,4.30,-5.68,6.07
6355,1.78,36.85,38.69,4.93,-5.56,5.97
6360,1.17,36.58,34.09,5.46,-5.22,5.78
6366,1.38,38.12,2.53,6.78,0.16,3.30
6370,3.79,40.33,-1.85,6.65,1.61,2.72
6375,7.70,43.08,-5.87,6.34,3.04,2.14
6380,11.89,45.88,-8.12,5.99,3.90,1.77
6385,19.09,53.03,-10.24,5.51,4.64,1.39
6390,34.71,76.41,-13.37,4.58,5.63,0.83
6395,37.57,81.53,-13.65,4.41,5.70,0.77
6401,44.17,101.65,-13.95,3.95,5.65,0.88
6405,51.79,130.51,-13.92,3.39,5.42,1.16
6410,66.70,207.33,-12.37,2.12,4.30,4.52
6416,65.98,211.83,-12.24,2.15,4.30,5.50
6420,73.54,197.95,-12.62,2.54,3.99,5.94
6425,79.06,192.20,-12.83,2.72,3.79,6.01
6430,107.33,155.14,-14.27,3.72,1.75,3.41
6435,110.18,151.53,-14.42,3.88,1.36,2.72
6440,112.68,147.21,-14.60,3.89,0.97,2.01
6445,114.07,145.24,-14.67,3.94,0.76,1.59
6451,115.52,143.70,-14.72,4.05,0.54,1.18
6455,117.02,142.43,-14.77,4.22,0.32,0.76
6460,118.59,141.34,-14.80,4.45,0.07,0.27
6466,120.78,138.21,-14.82,4.75,-0.22,-0.31
6470,121.23,126.64,-13.30,4.49,1.24,3.55
6475,120.84,121.58,-12.73,4.33,1.75,4.89
6480,120.19,115.37,-12.01,4.15,2.32,6.42
6485,118.95,106.29,-10.88,3.93,3.13,8.56
6490,96.28,56.08,-2.14,3.36,6.79,18.31
6495,78.64,41.47,2.06,3.42,7.60,20.17
6501,73.23,37.73,3.28,3.47,7.74,20.55
6505,65.24,33.24,5.03,3.56,7.81,20.81
6510,33.40,24.80,11.31,3.71,6.72,19.10
6515,19.65,22.62,13.79,3.75,5.92,18.02
6520,8.14,22.22,15.99,3.76,4.88,16.81
6525,-10.08,26.24,19.77,3.53,1.22,13.31
6531,-11.24,26.83,20.07,3.49,0.80,12.95
6535,-16.31,35.59,22.05,2.92,-3.67,9.93
6540,-14.99,37.45,21.50,2.75,-4.24,9.56
6545,-11.50,38.79,19.42,2.51,-4.26,9.38
6551,-10.21,38.73,18.54,2.45,-4.11,9.38
6555,-8.08,38.15,16.97,2.38,-3.78,9.36
6560,-7.24,37.65,16.32,2.37,-3.60,9.36
6565,-4.02,33.75,13.40,2.33,-2.74,9.32
6570,-3.37,32.26,12.59,2.33,-2.51,9.29
6575,-2.82,30.47,11.76,2.33,-2.26,9.26
6580,-2.76,23.17,8.48,2.37,-1.62,9.22
6585,-2.86,22.21,8.05,2.38,-1.58,9.23
6590,-3.04,21.21,7.61,2.39,-1.56,9.26
6595,-3.62,18.62,6.26,2.41,-1.65,9.49
6600,-3.61,18.38,5.96,2.38,-1.70,9.54
6605,-3.59,18.14,5.63,2.33,-1.74,9.57
6610,-3.58,18.13,5.59,2.33,-1.75,9.57
6616,-3.57,18.09,5.51,2.31,-1.75,9.58
6620,-3.45,16.83,4.98,2.23,-1.87,9.59
6625,-3.45,16.14,4.96,2.22,-1.94,9.59
6630,-3.44,15.90,4.93,2.22,-1.96,9.58
6635,-3.11,14.45,4.77,2.19,-2.09,9.57
6640,-2.96,14.19,4.69,2.18,-2.11,9.56
6645,-2.44,13.66,4.42,2.15,-2.13,9.55
6650,-2.11,13.16,4.21,2.12,-2.11,9.55
6655,-1.64,12.60,3.87,2.07,-2.08,9.54
6660,-1.44,12.27,3.69,2.05,-2.06,9.54
6665,-1.29,11.92,3.52,2.03,-2.03,9.54
6670,-1.15,11.55,3.35,2.02,-1.99,9.53
6675,-1.09,11.39,3.28,2.02,-1.98,9.53
6680,-1.07,11.34,3.26,2.01,-1.97,9.53
6686,-0.85,10.73,3.07,2.02,-1.92,9.52
6690,-0.81,10.62,3.05,2.03,-1.90,9.52
6695,-0.74,10.44,3.01,2.03,-1.89,9.51
6701,-0.70,10.33,2.98,2.03,-1.88,9.51
6705,-0.66,10.23,2.95,2.04,-1.87,9.51
6710,-0.61,10.09,2.90,2.04,-1.86,9.51
6716,-0.58,10.01,2.88,2.04,-1.85,9.51
6721,0.19,7.81,2.50,2.02,-1.81,9.49
6725,0.37,7.15,2.38,1.99,-1.82,9.49
6731,0.67,6.11,2.13,1.93,-1.88,9.48
6735,0.72,6.02,2.10,1.92,-1.89,9.49
6740,0.76,5.95,2.06,1.92,-1.90,9.50
6745,0.84,5.88,1.88,1.88,-1.90,9.62
6751,0.85,5.87,1.85,1.88,-1.89,9.63
6755,0.86,5.86,1.83,1.87,-1.89,9.64
6760,0.90,5.82,1.72,1.84,-1.87,9.66
6765,1.03,5.56,1.44,1.74,-1.82,9.67
6770,1.07,5.46,1.36,1.71,-1.81,9.67
6775,1.08,5.38,1.31,1.69,-1.81,9.67
6781,1.09,5.35,1.28,1.68,-1.80,9.67
6785,1.15,5.05,1.15,1.67,-1.80,9.66
6790,1.67,4.34,1.06,1.89,-1.83,9.47
6795,1.76,4.27,1.07,1.92,-1.84,9.46
6801,1.80,4.24,1.08,1.93,-1.84,9.45
6805,1.86,4.20,1.09,1.94,-1.84,9.44
6810,2.19,3.97,1.21,1.99,-1.84,9.42
6817,2.21,3.96,1.22,1.99,-1.84,9.42
6820,2.22,3.94,1.24,1.98,-1.84,9.43
6825,2.22,3.88,1.29,1.95,-1.84,9.45
6830,2.21,3.84,1.33,1.92,-1.83,9.48
6835,2.18,3.80,1.36,1.89,-1.83,9.50
6840,2.11,3.73,1.39,1.83,-1.83,9.54
6845,1.98,3.63,1.42,1.76,-1.82,9.58
6851,1.92,3.59,1.43,1.73,-1.82,9.59
6855,1.88,3.56,1.43,1.72,-1.82,9.60
6860,1.84,3.53,1.43,1.71,-1.82,9.61
6866,1.79,3.48,1.43,1.69,-1.82,9.62
6871,1.54,3.22,1.41,1.64,-1.81,9.67
6875,1.31,2.92,1.36,1.61,-1.81,9.70
6880,1.21,2.78,1.33,1.60,-1.81,9.71
6885,0.96,2.36,1.23,1.58,-1.81,9.74
6890,0.66,1.67,1.04,1.59,-1.80,9.75
6895,0.62,1.54,1.00,1.59,-1.80,9.75
6901,0.60,1.46,0.98,1.60,-1.80,9.75
6905,0.57,1.32,0.94,1.62,-1.80,9.74
6910,0.48,0.76,0.85,1.72,-1.80,9.66
6915,0.43,0.23,0.83,1.77,-1.78,9.53
6920,0.43,0.17,0.83,1.77,-1.78,9.53
6925,0.43,0.14,0.82,1.77,-1.78,9.52
6931,0.40,-0.22,0.75,1.78,-1.77,9.51
6935,0.39,-0.27,0.73,1.78,-1.77,9.51
6940,0.38,-0.34,0.70,1.78,-1.77,9.52
6945,0.37,-0.43,0.66,1.78,-1.77,9.51
6950,0.32,-0.82,0.37,1.80,-1.75,9.45
6955,0.31,-0.87,0.30,1.80,-1.74,9.43
6960,0.31,-0.98,0.16,1.80,-1.73,9.39
6966,0.31,-1.00,0.14,1.80,-1.73,9.38
6970,0.31,-1.01,0.12,1.81,-1.73,9.38
6975,0.31,-1.05,0.09,1.81,-1.73,9.36
6982,0.30,-1.11,0.07,1.81,-1.73,9.34
6985,0.30,-1.12,0.06,1.81,-1.73,9.33
6990,0.22,-1.32,0.08,1.81,-1.73,9.26
6995,0.18,-1.34,0.11,1.81,-1.74,9.25
7000,0.14,-1.35,0.13,1.81,-1.74,9.24
7005,0.04,-1.34,0.19,1.80,-1.74,9.23
7010,-0.31,-1.02,0.43,1.86,-1.76,9.25
7016,-0.32,-0.99,0.45,1.86,-1.76,9.25
7020,-0.37,-0.86,0.49,1.90,-1.76,9.26
7025,-0.38,-0.83,0.50,1.91,-1.76,9.27
7030,-0.40,-0.73,0.51,1.93,-1.76,9.28
7035,-0.41,-0.68,0.51,1.93,-1.76,9.29
7040,-0.42,-0.62,0.51,1.93,-1.76,9.30
7045,-0.43,-0.56,0.50,1.92,-1.76,9.30
7050,-0.43,-0.54,0.50,1.92,-1.76,9.31
7055,-0.52,-0.46,0.35,1.84,-1.77,9.35
7060,-0.55,-0.45,0.30,1.83,-1.77,9.36
7065,-0.56,-0.45,0.28,1.82,-1.77,9.36
7070,-0.57,-0.44,0.25,1.82,-1.77,9.37
7075,-0.61,-0.43,0.19,1.80,-1.78,9.38
7081,-0.66,-0.42,0.13,1.79,-1.79,9.40
7085,-0.67,-0.41,0.11,1.79,-1.79,9.40
7090,-0.91,-0.16,-0.15,1.76,-1.84,9.51
7095,-0.97,-0.03,-0.18,1.76,-1.85,9.55
7101,-0.99,0.04,-0.19,1.76,-1.86,9.56
7105,-1.04,0.21,-0.19,1.76,-1.88,9.60
7110,-1.06,0.26,-0.19,1.76,-1.89,9.61
7117,-1.07,0.31,-0.19,1.76,-1.90,9.62
7120,-1.08,0.42,-0.16,1.77,-1.91,9.63
7125,-1.07,0.49,-0.13,1.77,-1.92,9.64
7131,-0.94,0.49,-0.02,1.77,-1.90,9.62
7135,-0.85,0.44,0.03,1.77,-1.89,9.61
7140,-0.72,0.34,0.10,1.76,-1.88,9.59
7145,-0.57,0.22,0.19,1.74,-1.86,9.57
7151,-0.14,-0.07,0.47,1.61,-1.81,9.51
7155,-0.11,-0.07,0.52,1.62,-1.81,9.49
7160,-0.11,-0.07,0.54,1.63,-1.81,9.49
7165,-0.10,-0.07,0.55,1.64,-1.81,9.48
7170,-0.10,-0.07,0.57,1.65,-1.81,9.48
7175,-0.09,-0.07,0.61,1.67,-1.82,9.48
7181,-0.08,-0.07,0.62,1.67,-1.82,9.50
7186,-0.07,-0.06,0.62,1.66,-1.83,9.53
7190,-0.07,-0.06,0.61,1.65,-1.83,9.58
7195,-0.07,-0.09,0.53,1.62,-1.85,9.67
7200,-0.07,-0.11,0.45,1.60,-1.85,9.71
7205,-0.09,-0.15,0.38,1.59,-1.85,9.73
7210,-0.09,-0.16,0.35,1.58,-1.85,9.74
7216,-0.11,-0.18,0.30,1.57,-1.85,9.74
7220,-0.18,-0.27,0.11,1.55,-1.85,9.74
7225,-0.24,-0.30,0.04,1.53,-1.85,9.74
7231,-0.32,-0.33,-0.02,1.50,-1.86,9.71
7235,-0.38,-0.34,-0.03,1.47,-1.88,9.66
7240,-0.39,-0.34,-0.03,1.47,-1.88,9.65
7245,-0.38,-0.35,-0.02,1.46,-1.88,9.64
7251,-0.37,-0.35,-0.02,1.46,-1.89,9.63
7255,-0.36,-0.36,-0.01,1.46,-1.89,9.62
7260,-0.30,-0.38,0.01,1.46,-1.90,9.59
7266,-0.13,-0.40,0.05,1.46,-1.90,9.56
7270,0.08,-0.49,0.02,1.48,-1.89,9.54
7275,0.13,-0.53,0.01,1.49,-1.89,9.53
7280,0.16,-0.56,-0.00,1.50,-1.89,9.53
7285,0.24,-0.67,-0.04,1.52,-1.87,9.52
7290,0.35,-0.90,-0.17,1.56,-1.84,9.49
7295,0.37,-0.96,-0.21,1.56,-1.83,9.48
7301,0.38,-1.14,-0.37,1.54,-1.82,9.48
7305,0.37,-1.20,-0.44,1.53,-1.82,9.49
7310,0.37,-1.22,-0.46,1.53,-1.82,9.49
7315,0.37,-1.24,-0.49,1.53,-1.82,9.49
7320,0.38,-1.27,-0.52,1.53,-1.82,9.49
7325,0.38,-1.30,-0.56,1.53,-1.82,9.49
7331,0.40,-1.32,-0.59,1.52,-1.82,9.49
7335,0.41,-1.34,-0.62,1.52,-1.82,9.49
7340,0.45,-1.36,-0.67,1.53,-1.82,9.50
7345,0.47,-1.37,-0.67,1.53,-1.82,9.50
7350,0.50,-1.38,-0.69,1.53,-1.82,9.50
7355,0.55,-1.40,-0.72,1.54,-1.82,9.51
7360,0.64,-1.43,-0.77,1.55,-1.82,9.52
7365,0.91,-1.54,-0.90,1.60,-1.82,9.53
7370,0.95,-1.57,-0.93,1.61,-1.82,9.53
7375,1.06,-1.64,-1.03,1.67,-1.82,9.51
7381,1.14,-1.69,-1.14,1.72,-1.81,9.48
7385,1.17,-1.71,-1.17,1.74,-1.81,9.46
7390,1.15,-1.68,-1.21,1.74,-1.80,9.45
7395,1.09,-1.62,-1.23,1.71,-1.80,9.45
7400,1.07,-1.60,-1.23,1.70,-1.80,9.46
7405,1.05,-1.59,-1.24,1.70,-1.80,9.46
7410,0.96,-1.51,-1.24,1.67,-1.80,9.48
7416,0.91,-1.46,-1.25,1.65,-1.80,9.49
7420,0.82,-1.37,-1.27,1.62,-1.80,9.51
7425,0.75,-1.28,-1.30,1.58,-1.81,9.53
7430,0.73,-1.24,-1.32,1.56,-1.82,9.53
7435,0.70,-1.18,-1.35,1.53,-1.82,9.54
7440,0.67,-1.11,-1.39,1.49,-1.83,9.55
7445,0.66,-1.08,-1.41,1.47,-1.84,9.55
7450,0.65,-1.07,-1.41,1.47,-1.84,9.55
7455,0.65,-1.05,-1.43,1.45,-1.84,9.55
7460,0.64,-1.01,-1.45,1.43,-1.85,9.55
7465,0.74,1.04,-1.11,2.00,-1.89,9.64
7470,0.81,1.25,-1.35,2.22,-1.90,9.69
7475,0.82,1.27,-1.37,2.24,-1.90,9.70
7481,0.83,1.28,-1.39,2.25,-1.90,9.70
7486,0.83,1.30,-1.42,2.28,-1.90,9.71
7490,0.84,1.31,-1.43,2.29,-1.90,9.71
7495,0.84,1.33,-1.45,2.30,-1.90,9.71
7500,0.85,1.34,-1.47,2.32,-1.90,9.72
7505,0.85,1.36,-1.49,2.33,-1.91,9.72
7510,0.86,1.37,-1.50,2.34,-1.91,9.73
7516,0.86,1.37,-1.51,2.35,-1.91,9.73
7520,0.86,1.38,-1.52,2.36,-1.91,9.73
7525,0.87,1.39,-1.53,2.36,-1.91,9.73
7531,0.87,1.39,-1.54,2.37,-1.91,9.73
7535,0.88,1.41,-1.56,2.39,-1.91,9.74
7540,0.88,1.42,-1.57,2.40,-1.91,9.74
7545,0.88,1.43,-1.59,2.41,-1.91,9.74
7551,0.89,1.44,-1.60,2.42,-1.91,9.75
7555,0.89,1.45,-1.61,2.43,-1.91,9.75
7560,0.90,1.46,-1.64,2.44,-1.91,9.76
7567,0.91,1.48,-1.67,2.46,-1.91,9.76
7570,0.91,1.49,-1.68,2.47,-1.91,9.77
7575,0.91,1.50,-1.69,2.48,-1.91,9.77
7582,0.92,1.51,-1.71,2.48,-1.91,9.77
7585,0.92,1.51,-1.72,2.49,-1.91,9.77
7590,0.93,1.52,-1.73,2.50,-1.91,9.78
7595,0.93,1.53,-1.74,2.51,-1.91,9.78
7600,0.93,1.53,-1.75,2.51,-1.91,9.78
7605,0.93,1.54,-1.76,2.52,-1.91,9.78
7610,0.93,1.54,-1.77,2.52,-1.91,9.79
7616,0.97,1.61,-1.89,2.58,-1.92,9.81
7620,0.97,1.61,-1.91,2.59,-1.92,9.82
7625,0.98,1.62,-1.92,2.59,-1.92,9.82
7630,1.04,1.67,-2.18,2.62,-1.92,9.88
7635,1.04,1.67,-2.19,2.61,-1.92,9.88
7640,1.04,1.67,-2.19,2.61,-1.92,9.88
7645,1.04,1.67,-2.19,2.61,-1.92,9.88
7650,1.04,1.67,-2.20,2.61,-1.92,9.88
7655,1.04,1.67,-2.20,2.61,-1.92,9.88
7660,1.05,1.66,-2.23,2.60,-1.92,9.89
7666,1.07,1.61,-2.32,2.51,-1.92,9.91
7670,1.07,1.46,-2.39,2.32,-1.92,9.92
7675,1.05,1.25,-2.37,2.05,-1.92,9.91
7680,1.02,1.08,-2.30,1.85,-1.91,9.89
7685,0.94,0.76,-2.01,1.49,-1.91,9.82
7690,0.87,0.64,-1.66,1.39,-1.90,9.75
7695,0.83,0.71,-1.30,1.53,-1.90,9.67
7701,0.80,0.97,-0.92,1.92,-1.90,9.59
7705,-3.80,4.44,5.63,1.98,-1.90,9.34
7710,-4.44,4.83,5.38,1.96,-1.90,9.33
7715,-5.28,5.16,5.25,1.95,-1.89,9.32
7720,-5.55,5.32,5.24,1.95,-1.89,9.32
7725,-5.75,5.42,5.24,1.95,-1.90,9.32
7731,-5.87,5.48,5.24,1.95,-1.90,9.33
7735,-5.98,5.54,5.25,1.95,-1.90,9.33
7740,-6.16,5.66,5.26,1.95,-1.90,9.34
7745,-6.30,5.78,5.26,1.94,-1.90,9.34
7750,-6.56,6.04,5.28,1.94,-1.91,9.36
7755,-6.89,6.44,5.30,1.94,-1.91,9.38
7760,-7.42,7.09,5.31,1.92,-1.92,9.41
7765,-7.85,7.65,5.30,1.90,-1.92,9.44
7770,-8.48,8.67,5.15,1.86,-1.93,9.45
7775,-20.30,19.62,8.83,1.38,-1.94,9.67
7780,-23.39,21.89,12.54,1.49,-2.03,9.54
7785,-26.97,26.87,17.42,1.61,-2.16,9.38
7790,-28.16,29.19,19.22,1.65,-2.21,9.31
7795,-28.23,29.43,19.32,1.65,-2.22,9.31
7800,-29.48,33.21,21.27,1.67,-2.26,9.26
7805,-31.27,40.90,24.29,1.69,-2.33,9.17
7810,-32.89,53.52,25.83,1.87,-2.09,9.29
7815,-33.97,65.20,27.24,2.24,-1.61,9.39
7820,-34.25,73.46,29.88,2.43,-1.17,9.44
7825,-35.04,81.32,33.23,2.49,-0.90,9.56
7831,-36.29,88.74,37.16,2.51,-0.71,9.75
7835,-43.76,106.66,50.74,2.49,-0.45,10.47
7840,-46.09,110.08,54.38,2.47,-0.41,10.62
7845,-48.84,113.50,58.35,2.42,-0.38,10.78
7850,-51.76,116.54,62.32,2.35,-0.36,10.92
7855,-120.85,163.00,166.57,0.95,-5.81,11.06
7860,-116.70,165.49,166.45,1.09,-5.92,11.30
7865,-110.79,168.13,166.17,1.29,-5.99,11.63
7870,-94.38,172.09,164.54,1.80,-5.86,12.61
7875,-27.81,168.46,145.88,3.99,-4.24,16.58
7880,3.85,140.28,124.22,5.23,-3.09,17.40
7885,15.38,110.51,109.47,5.68,-2.47,16.76
7890,19.28,51.49,94.65,5.71,-1.98,12.26
7895,17.83,10.46,92.57,5.54,-1.86,9.25
7900,17.56,8.81,92.54,5.52,-1.86,8.94
7905,17.31,6.81,92.58,5.50,-1.89,8.60
7910,17.16,-3.12,92.80,5.44,-1.95,8.08
7916,20.97,-72.48,93.64,5.03,-2.93,7.09
7920,29.20,-110.96,93.54,4.30,-5.41,7.20
7925,32.67,-125.64,90.03,3.50,-7.50,6.94
7931,24.09,-133.84,56.95,2.63,-8.47,5.81
7935,20.23,-134.93,45.49,2.52,-8.47,5.59
7940,18.74,-135.36,41.56,2.48,-8.45,5.49
7945,17.99,-135.60,39.25,2.47,-8.44,5.44
7951,17.17,-135.37,36.54,2.45,-8.40,5.50
7955,15.99,-134.97,33.55,2.43,-8.36,5.59
7960,12.50,-134.00,25.97,2.37,-8.30,5.80
7965,8.43,-132.81,18.62,2.32,-8.22,6.05
7970,-4.64,-129.09,-3.52,2.16,-8.04,6.74
7975,-18.45,-125.75,-27.05,1.95,-7.83,7.29
7982,-38.20,-121.24,-64.47,1.35,-7.07,8.06
7985,-39.98,-120.07,-70.61,1.26,-6.82,8.26
7990,-41.24,-119.15,-75.33,1.18,-6.61,8.44
7995,-44.72,-116.48,-88.59,0.91,-5.96,9.18
8000,-48.33,-116.31,-102.21,0.09,-4.96,10.25
8005,-45.57,-117.04,-105.02,0.02,-5.00,10.02
8010,-40.70,-115.94,-106.05,0.14,-5.25,9.87
8016,-39.79,-115.38,-105.93,0.21,-5.41,9.82
8020,-39.39,-114.78,-105.92,0.26,-5.60,9.77
8025,-39.16,-113.89,-106.15,0.30,-5.88,9.71
8030,-39.12,-113.32,-106.41,0.31,-6.05,9.68
8035,-39.10,-112.46,-106.82,0.32,-6.26,9.67
8040,-43.28,-80.09,-117.63,-1.05,-2.58,10.06
8045,-40.94,-75.64,-116.11,-1.38,-1.23,10.25
8050,-22.48,-67.26,-88.75,-1.71,-0.15,10.12
8055,-21.75,-67.12,-87.08,-1.71,-0.22,10.06
8060,-16.74,-65.27,-75.81,-1.79,-0.40,9.89
8065,-10.01,-62.71,-57.18,-1.95,-0.71,9.44
8071,-3.50,-58.94,-34.95,-2.14,-0.98,8.95
8075,10.62,-44.92,10.88,-2.51,-1.85,8.18
8081,15.65,-37.49,26.70,-2.50,-2.98,7.65
8085,17.57,-28.85,39.73,-2.33,-4.23,6.03
8090,15.51,-19.60,43.90,-2.16,-4.65,5.55
8095,14.36,-14.29,44.49,-2.09,-4.79,5.53
8100,13.63,-10.83,44.77,-2.05,-4.87,5.53
8105,12.66,-6.31,45.07,-1.99,-4.97,5.53
8110,11.88,-2.65,45.30,-1.94,-5.06,5.53
8115,11.53,-0.92,45.37,-1.91,-5.10,5.53
8120,10.92,2.14,45.24,-1.85,-5.16,5.54
8125,9.85,7.05,44.84,-1.76,-5.27,5.57
8131,-3.38,58.55,34.32,0.09,-6.09,5.69
8135,-8.23,70.40,27.61,1.66,-5.44,5.14
8140,-10.68,72.29,19.12,3.72,-4.27,3.72
8145,-10.62,72.46,-9.72,8.53,-2.02,0.71
8150,38.11,98.95,-79.67,7.39,0.17,-0.19
8155,59.11,129.49,-51.86,3.34,1.89,0.04
8160,102.52,174.09,0.78,1.31,5.07,4.56
8166,115.71,183.75,10.92,1.42,4.59,7.03
8170,157.62,146.85,-36.50,1.18,0.19,11.55
8175,149.58,92.59,-39.28,1.12,-0.14,10.00
8182,68.74,30.12,-4.82,3.43,-0.95,3.01
8185,68.91,28.51,-5.22,3.48,-1.08,2.99
8190,67.85,26.72,-5.34,3.53,-1.31,3.27
8195,61.91,25.95,-3.60,3.54,-1.56,3.86
8201,-3.52,35.91,11.36,2.90,-6.32,8.39
8205,0.53,34.40,6.22,2.57,-4.73,8.94
8210,0.97,23.57,4.21,2.45,-2.00,9.22
8216,-0.90,21.89,4.05,2.45,-1.82,9.22
8220,-3.21,15.41,2.60,2.35,-2.03,9.27
8225,-2.84,14.53,2.55,2.33,-2.05,9.33
8231,-2.64,14.16,2.55,2.32,-2.06,9.35
8236,0.43,11.04,2.86,2.00,-2.13,9.55
8240,1.12,5.98,1.89,1.86,-1.95,9.53
8246,1.05,5.65,1.73,1.85,-1.95,9.51
8250,1.02,5.34,1.59,1.86,-1.95,9.49
8255,1.03,5.24,1.55,1.87,-1.95,9.49
8260,1.05,5.18,1.52,1.88,-1.95,9.49
8266,1.12,5.02,1.49,1.90,-1.94,9.48
8270,1.17,4.98,1.48,1.91,-1.94,9.48
8275,1.51,4.62,1.37,1.95,-1.92,9.52
8280,1.57,3.85,1.08,1.97,-1.90,9.64
8285,1.56,3.71,1.03,1.96,-1.89,9.65
8290,1.55,3.63,0.99,1.95,-1.89,9.65
8295,1.53,3.50,0.94,1.92,-1.89,9.65
8300,1.52,3.46,0.93,1.91,-1.89,9.65
8305,1.42,3.16,0.80,1.78,-1.90,9.61
8310,1.24,2.98,0.76,1.73,-1.91,9.58
8316,1.11,2.89,0.72,1.74,-1.93,9.58
8320,1.04,2.83,0.68,1.75,-1.94,9.59
8325,0.99,2.77,0.63,1.75,-1.95,9.60
8331,0.94,2.69,0.56,1.75,-1.96,9.62
8335,0.82,2.51,0.42,1.74,-1.97,9.65
8340,0.61,2.07,0.20,1.78,-1.97,9.66
8345,0.48,1.71,0.09,1.80,-1.96,9.61
8350,0.43,1.60,0.07,1.81,-1.96,9.59
8355,0.39,1.54,0.06,1.81,-1.95,9.57
8360,0.35,1.47,0.04,1.80,-1.95,9.55
8366,0.32,1.42,0.03,1.79,-1.94,9.53
8370,0.29,1.38,0.03,1.78,-1.94,9.52
8375,0.25,1.32,0.02,1.76,-1.93,9.51
8381,0.20,1.24,0.01,1.73,-1.92,9.49
8385,0.17,1.20,0.01,1.72,-1.91,9.48
8390,0.17,1.18,0.01,1.71,-1.91,9.47
8395,0.16,1.16,0.01,1.70,-1.91,9.47
8400,0.11,1.10,-0.01,1.68,-1.90,9.46
8405,0.12,1.10,-0.01,1.68,-1.91,9.47
8410,0.15,1.05,-0.01,1.66,-1.90,9.48
8416,0.17,1.00,-0.01,1.65,-1.90,9.48
8420,0.18,0.93,-0.01,1.63,-1.89,9.49
8425,0.25,0.74,0.15,1.52,-1.87,9.55
8430,0.37,0.86,0.41,1.55,-1.90,9.59
8435,0.81,0.94,0.80,1.59,-1.94,9.47
8440,0.92,0.95,0.87,1.58,-1.94,9.47
8445,0.98,0.95,0.91,1.59,-1.94,9.47
8450,1.08,0.94,0.99,1.60,-1.93,9.48
8455,1.17,0.94,1.06,1.61,-1.92,9.48
8460,-0.81,-0.13,-0.34,1.90,-1.90,9.50
8465,-0.79,-0.04,-0.33,1.92,-1.90,9.51
8470,-0.78,-0.02,-0.32,1.93,-1.90,9.51
8475,-0.72,0.05,-0.27,1.95,-1.90,9.52
8481,-0.72,0.06,-0.26,1.95,-1.90,9.52
8485,-0.71,0.07,-0.25,1.96,-1.90,9.52
8490,-0.71,0.07,-0.25,1.96,-1.90,9.52
8496,-0.70,0.08,-0.25,1.96,-1.90,9.52
8500,-0.70,0.09,-0.24,1.96,-1.90,9.52
8505,-0.69,0.11,-0.23,1.97,-1.90,9.53
8510,-0.62,0.20,0.12,2.00,-1.91,9.56
8515,-0.64,0.21,0.19,2.00,-1.91,9.56
8520,-0.66,0.21,0.26,2.00,-1.91,9.56
8525,-0.70,0.21,0.38,1.99,-1.91,9.55
8531,-0.73,0.21,0.43,1.99,-1.91,9.55
8535,-0.75,0.21,0.47,1.99,-1.91,9.55
8540,-0.76,0.21,0.49,1.98,-1.92,9.55
8545,-0.78,0.21,0.52,1.98,-1.92,9.55
8550,-0.79,0.21,0.54,1.98,-1.92,9.55
8555,-0.84,0.20,0.62,1.97,-1.92,9.55
8560,-0.86,0.20,0.65,1.96,-1.92,9.55
8566,-0.88,0.20,0.67,1.96,-1.92,9.55
8571,-0.89,0.20,0.70,1.95,-1.92,9.55
8575,-0.90,0.20,0.72,1.95,-1.92,9.55
8582,-0.92,0.20,0.74,1.94,-1.92,9.55
8585,-0.93,0.20,0.77,1.93,-1.92,9.55
8590,-0.94,0.20,0.78,1.93,-1.92,9.55
8596,-0.95,0.20,0.79,1.93,-1.92,9.55
8601,-0.96,0.20,0.80,1.92,-1.92,9.55
8605,-0.96,0.20,0.81,1.92,-1.92,9.55
8610,-0.97,0.20,0.82,1.92,-1.92,9.55
8616,-0.98,0.20,0.83,1.91,-1.92,9.55
8620,-0.98,0.20,0.83,1.91,-1.93,9.55
8625,-0.99,0.20,0.84,1.91,-1.93,9.55
8632,-1.00,0.20,0.85,1.90,-1.93,9.56
8636,-1.01,0.20,0.86,1.90,-1.93,9.56
8640,-1.02,0.19,0.87,1.89,-1.93,9.56
8645,-1.03,0.19,0.88,1.88,-1.93,9.56
8650,-1.04,0.19,0.88,1.88,-1.93,9.57
8655,-1.05,0.19,0.89,1.87,-1.93,9.57
8660,-1.05,0.19,0.89,1.87,-1.93,9.57
8666,-1.06,0.19,0.90,1.86,-1.93,9.57
8670,-1.07,0.19,0.91,1.85,-1.93,9.58
8675,-1.08,0.18,0.91,1.82,-1.93,9.59
8680,-1.08,0.17,0.90,1.79,-1.93,9.60
8685,-1.08,0.16,0.89,1.78,-1.93,9.60
8690,-1.08,0.15,0.89,1.76,-1.93,9.60
8695,-1.03,0.10,0.80,1.71,-1.93,9.60
8701,-0.86,0.00,0.58,1.64,-1.92,9.60
8705,-0.76,-0.06,0.46,1.60,-1.91,9.59
8710,-0.65,-0.13,0.34,1.55,-1.90,9.58
8715,-0.61,-0.15,0.29,1.54,-1.89,9.57
8720,-0.58,-0.17,0.27,1.52,-1.89,9.57
8725,-0.56,-0.18,0.26,1.51,-1.89,9.57
8731,-0.54,-0.19,0.24,1.50,-1.89,9.57
8735,-0.52,-0.20,0.22,1.50,-1.88,9.57
8740,-0.51,-0.20,0.21,1.49,-1.88,9.57
8746,-0.50,-0.21,0.21,1.49,-1.88,9.57
8751,-0.50,-0.21,0.20,1.48,-1.88,9.57
8755,-0.49,-0.22,0.19,1.48,-1.88,9.57
8760,-0.49,-0.22,0.19,1.48,-1.88,9.57
8765,-0.48,-0.22,0.18,1.48,-1.88,9.56
8770,-0.48,-0.23,0.18,1.47,-1.88,9.56
8775,-0.48,-0.23,0.17,1.47,-1.88,9.56
8781,-0.47,-0.23,0.17,1.47,-1.87,9.56
8785,-0.47,-0.24,0.16,1.46,-1.87,9.56
8790,-0.47,-0.25,0.16,1.46,-1.87,9.56
8795,-0.47,-0.26,0.15,1.46,-1.86,9.56
8800,-0.47,-0.26,0.14,1.46,-1.86,9.56
8805,-0.47,-0.27,0.14,1.46,-1.86,9.56
8810,-0.49,-0.30,0.14,1.48,-1.86,9.55
8815,-0.51,-0.32,0.14,1.49,-1.86,9.55
8820,-0.57,-0.41,0.13,1.54,-1.86,9.53
8825,-0.77,-0.67,0.03,1.66,-1.87,9.48
8830,-0.77,-0.67,0.03,1.66,-1.87,9.48
8835,-0.77,-0.68,0.03,1.66,-1.87,9.48
8840,-0.77,-0.68,0.02,1.66,-1.87,9.48
8845,-0.78,-0.69,0.02,1.67,-1.87,9.48
8850,-0.78,-0.69,0.02,1.67,-1.87,9.47
8855,-0.79,-0.70,0.02,1.67,-1.87,9.47
8860,-0.82,-0.73,-0.01,1.68,-1.87,9.47
8865,-1.00,-0.87,-0.11,1.64,-1.89,9.49
8870,-1.01,-0.87,-0.10,1.63,-1.89,9.49
8875,-0.98,-0.83,-0.12,1.50,-1.91,9.48
8880,-0.97,-0.83,-0.13,1.49,-1.91,9.47
8885,-0.94,-0.83,-0.15,1.47,-1.91,9.47
8890,-0.92,-0.83,-0.16,1.46,-1.92,9.47
8895,-0.91,-0.83,-0.17,1.45,-1.92,9.47
8900,-0.89,-0.82,-0.18,1.44,-1.92,9.46
8905,-0.85,-0.82,-0.19,1.43,-1.92,9.46
8910,-0.84,-0.82,-0.20,1.43,-1.92,9.46
8916,-0.83,-0.82,-0.20,1.42,-1.92,9.45
8920,-0.75,-0.81,-0.22,1.41,-1.92,9.44
8925,-0.73,-0.81,-0.22,1.41,-1.92,9.43
8931,-0.72,-0.81,-0.22,1.41,-1.92,9.43
8935,-0.70,-0.81,-0.21,1.40,-1.93,9.42
8940,-0.68,-0.80,-0.21,1.40,-1.93,9.42
8946,-0.66,-0.80,-0.21,1.40,-1.93,9.42
8951,-0.62,-0.79,-0.19,1.40,-1.93,9.40
8955,-0.58,-0.79,-0.19,1.40,-1.93,9.40
8960,-0.55,-0.79,-0.18,1.40,-1.93,9.39
8966,-0.53,-0.79,-0.18,1.40,-1.93,9.39
8970,-0.49,-0.79,-0.16,1.41,-1.93,9.38
8975,-0.32,-0.80,-0.13,1.41,-1.94,9.37
8981,-0.24,-0.81,-0.12,1.41,-1.94,9.36
8985,-0.16,-0.81,-0.11,1.42,-1.95,9.36
8990,-0.08,-0.82,-0.11,1.42,-1.95,9.35
8996,0.14,-0.84,-0.08,1.43,-1.95,9.34
9001,0.20,-0.85,-0.08,1.43,-1.96,9.34
9005,0.24,-0.86,-0.08,1.43,-1.96,9.34
9010,0.28,-0.86,-0.07,1.43,-1.96,9.34
9016,0.37,-0.88,-0.07,1.44,-1.96,9.34
9020,0.40,-0.89,-0.07,1.44,-1.96,9.34
9025,0.44,-0.89,-0.06,1.44,-1.96,9.34
9032,0.47,-0.90,-0.06,1.44,-1.96,9.34
9035,0.51,-0.91,-0.06,1.45,-1.96,9.34
9040,0.60,-0.93,-0.05,1.45,-1.96,9.34
9046,0.86,-1.02,-0.03,1.48,-1.96,9.34
9050,1.07,-1.12,-0.02,1.51,-1.96,9.34
9055,1.11,-1.14,-0.01,1.52,-1.96,9.34
9060,1.14,-1.16,-0.01,1.52,-1.96,9.34
9065,1.16,-1.17,-0.01,1.53,-1.96,9.34
9070,1.19,-1.18,-0.01,1.53,-1.95,9.35
9075,1.23,-1.21,-0.01,1.54,-1.95,9.35
9080,1.31,-1.26,-0.01,1.55,-1.95,9.37
9085,1.33,-1.27,-0.02,1.56,-1.95,9.38
9090,1.35,-1.29,-0.02,1.56,-1.94,9.39
9096,1.38,-1.30,-0.03,1.56,-1.94,9.40
9100,1.48,-1.37,-0.06,1.58,-1.93,9.47
9105,1.51,-1.40,-0.08,1.58,-1.93,9.49
9110,1.53,-1.42,-0.11,1.58,-1.92,9.52
9115,1.55,-1.43,-0.12,1.58,-1.92,9.52
9120,1.55,-1.43,-0.13,1.58,-1.92,9.52
9125,1.55,-1.44,-0.13,1.58,-1.92,9.52
9131,1.56,-1.44,-0.14,1.58,-1.92,9.52
9135,1.56,-1.44,-0.14,1.58,-1.92,9.52
9140,1.59,-1.46,-0.16,1.58,-1.91,9.52
9147,1.61,-1.48,-0.20,1.57,-1.91,9.51
9150,1.63,-1.50,-0.24,1.57,-1.90,9.50
9155,1.65,-1.51,-0.26,1.57,-1.90,9.49
9160,1.66,-1.52,-0.28,1.57,-1.90,9.49
9165,1.68,-1.53,-0.32,1.57,-1.89,9.47
9170,1.69,-1.55,-0.35,1.56,-1.89,9.45
9175,1.70,-1.55,-0.37,1.56,-1.89,9.44
9181,1.73,-1.56,-0.44,1.56,-1.88,9.41
9185,1.74,-1.55,-0.45,1.56,-1.88,9.40
9190,1.74,-1.54,-0.47,1.55,-1.88,9.39
9195,1.77,-1.47,-0.55,1.55,-1.88,9.38
9200,1.77,-1.44,-0.55,1.55,-1.88,9.37
9205,1.77,-1.44,-0.55,1.55,-1.88,9.37
9210,1.77,-1.44,-0.55,1.55,-1.88,9.37
9215,1.77,-1.43,-0.55,1.55,-1.88,9.37
9220,1.77,-1.43,-0.55,1.55,-1.88,9.37
9225,1.77,-1.43,-0.55,1.55,-1.88,9.37
9230,1.77,-1.43,-0.55,1.55,-1.88,9.37
9235,1.77,-1.43,-0.55,1.55,-1.88,9.37
9240,1.77,-1.42,-0.55,1.55,-1.88,9.37
9245,1.77,-1.41,-0.55,1.55,-1.88,9.37
9250,1.76,-1.40,-0.55,1.55,-1.88,9.37
9255,1.75,-1.39,-0.55,1.55,-1.88,9.37
9260,1.75,-1.38,-0.55,1.55,-1.88,9.37
9265,1.75,-1.37,-0.55,1.55,-1.88,9.37
9270,1.74,-1.37,-0.55,1.55,-1.88,9.37
9275,1.74,-1.36,-0.55,1.55,-1.88,9.37
9281,1.72,-1.33,-0.57,1.55,-1.88,9.38
9285,1.71,-1.32,-0.58,1.55,-1.88,9.38
9290,1.71,-1.32,-0.58,1.55,-1.87,9.38
9296,1.70,-1.31,-0.59,1.55,-1.87,9.38
9300,1.69,-1.29,-0.60,1.55,-1.87,9.38
9305,1.64,-1.23,-0.65,1.55,-1.87,9.39
9310,1.60,-1.17,-0.70,1.55,-1.87,9.39
9316,1.56,-1.13,-0.74,1.55,-1.87,9.40
9320,1.54,-1.11,-0.78,1.55,-1.87,9.40
9325,1.49,-1.07,-0.87,1.55,-1.87,9.41
9331,1.44,-1.04,-0.96,1.55,-1.87,9.42
9335,1.40,-1.00,-1.06,1.55,-1.87,9.42
9340,1.34,-0.95,-1.18,1.55,-1.87,9.43
9347,1.33,-0.93,-1.22,1.55,-1.87,9.44
9351,1.29,-0.88,-1.34,1.55,-1.87,9.44
9355,1.28,-0.87,-1.35,1.55,-1.87,9.45
9360,1.27,-0.85,-1.39,1.55,-1.87,9.45
9366,1.26,-0.83,-1.42,1.55,-1.87,9.45
9370,1.24,-0.81,-1.46,1.55,-1.87,9.45
9375,1.22,-0.78,-1.51,1.55,-1.88,9.46
9381,1.20,-0.70,-1.58,1.55,-1.88,9.46
9385,1.18,-0.64,-1.63,1.55,-1.89,9.46
9390,1.17,-0.61,-1.64,1.55,-1.89,9.46
9397,1.17,-0.59,-1.64,1.56,-1.89,9.46
9402,1.16,-0.55,-1.65,1.56,-1.89,9.46
9405,1.16,-0.53,-1.65,1.56,-1.89,9.46
9410,1.15,-0.47,-1.63,1.56,-1.89,9.46
9416,1.15,-0.46,-1.63,1.56,-1.89,9.46
9420,1.14,-0.44,-1.62,1.56,-1.89,9.45
9425,1.14,-0.42,-1.61,1.56,-1.89,9.45
9431,1.13,-0.32,-1.56,1.57,-1.89,9.44
9435,1.12,-0.30,-1.55,1.58,-1.89,9.44
9440,1.12,-0.27,-1.54,1.58,-1.89,9.44
9446,1.12,-0.24,-1.53,1.58,-1.89,9.43
9450,1.11,-0.09,-1.45,1.63,-1.89,9.43
9455,1.11,-0.08,-1.44,1.63,-1.89,9.43
9460,1.11,-0.04,-1.43,1.64,-1.89,9.44
9466,1.14,0.15,-1.33,1.71,-1.87,9.49
9470,1.15,0.17,-1.32,1.72,-1.86,9.49
9475,1.16,0.21,-1.29,1.73,-1.84,9.52
9480,1.16,0.21,-1.29,1.74,-1.84,9.53
9485,1.17,0.22,-1.28,1.74,-1.84,9.53
9490,1.17,0.22,-1.27,1.74,-1.83,9.53
9496,1.17,0.23,-1.27,1.73,-1.83,9.53
9500,1.17,0.23,-1.26,1.73,-1.82,9.53
9505,1.18,0.23,-1.25,1.72,-1.82,9.53
9510,1.18,0.23,-1.25,1.72,-1.82,9.53
9515,1.18,0.24,-1.25,1.71,-1.82,9.53
9520,1.19,0.24,-1.25,1.71,-1.82,9.53
9525,1.19,0.24,-1.25,1.70,-1.82,9.54
9531,1.20,0.25,-1.26,1.70,-1.82,9.54
9535,1.20,0.25,-1.26,1.70,-1.83,9.54
9540,1.21,0.25,-1.27,1.69,-1.83,9.54
9547,1.22,0.26,-1.28,1.69,-1.83,9.54
9550,1.22,0.26,-1.28,1.68,-1.83,9.54
9555,1.23,0.27,-1.29,1.67,-1.83,9.54
9560,1.25,0.27,-1.31,1.66,-1.83,9.55
9566,1.26,0.28,-1.34,1.64,-1.83,9.55
9570,1.26,0.29,-1.36,1.63,-1.83,9.55
9575,1.28,0.30,-1.39,1.61,-1.83,9.56
9581,1.29,0.31,-1.41,1.59,-1.83,9.57
9585,1.30,0.33,-1.44,1.57,-1.83,9.57
9590,1.30,0.34,-1.45,1.55,-1.83,9.58
9595,1.30,0.35,-1.46,1.55,-1.83,9.58
9600,1.30,0.36,-1.46,1.54,-1.83,9.58
9605,1.29,0.38,-1.47,1.53,-1.83,9.58
9610,1.28,0.39,-1.47,1.52,-1.83,9.58
9615,1.26,0.41,-1.48,1.51,-1.83,9.58
9620,1.16,0.51,-1.51,1.48,-1.83,9.59
9625,1.15,0.53,-1.51,1.47,-1.83,9.59
9630,1.13,0.54,-1.52,1.47,-1.83,9.59
9635,1.01,0.68,-1.55,1.45,-1.83,9.60
9640,0.73,0.96,-1.58,1.43,-1.85,9.64
9645,0.41,1.24,-1.61,1.43,-1.88,9.67
9650,0.08,1.49,-1.65,1.46,-1.92,9.72
9655,-0.16,1.65,-1.67,1.48,-1.95,9.74
9660,-0.28,1.71,-1.68,1.49,-1.96,9.75
9665,-0.45,1.77,-1.68,1.51,-1.99,9.76
9670,-0.52,1.80,-1.68,1.52,-2.00,9.76
9675,-0.60,1.82,-1.68,1.53,-2.02,9.76
9681,-0.66,1.84,-1.68,1.54,-2.03,9.76
9685,-0.75,1.86,-1.67,1.55,-2.04,9.76
9690,-0.88,1.88,-1.65,1.57,-2.07,9.76
9696,-0.96,1.88,-1.63,1.59,-2.09,9.75
9700,-1.09,1.89,-1.58,1.61,-2.11,9.74
9705,-1.14,1.89,-1.55,1.62,-2.12,9.73
9710,-1.24,1.88,-1.46,1.65,-2.15,9.71
9716,-1.30,1.86,-1.39,1.68,-2.16,9.69
9720,-1.35,1.81,-1.28,1.74,-2.17,9.67
9725,-1.38,1.75,-1.14,1.81,-2.17,9.64
9731,-1.38,1.67,-1.05,1.88,-2.17,9.61
9735,-1.35,1.60,-1.00,1.94,-2.15,9.59
9740,-1.33,1.56,-0.97,1.98,-2.13,9.57
9747,-1.31,1.52,-0.94,2.00,-2.11,9.56
9750,-1.29,1.49,-0.92,2.02,-2.10,9.55
9755,-1.28,1.47,-0.91,2.03,-2.10,9.54
9760,-1.28,1.46,-0.90,2.04,-2.09,9.54
9765,-1.27,1.44,-0.88,2.05,-2.08,9.54
9770,-1.26,1.41,-0.86,2.06,-2.07,9.53
9775,-1.20,1.32,-0.74,2.11,-2.01,9.49
9781,-1.19,1.30,-0.71,2.13,-2.00,9.49
9785,-1.18,1.28,-0.69,2.14,-1.99,9.48
9790,-1.17,1.26,-0.65,2.15,-1.97,9.47
9795,-1.14,1.21,-0.59,2.17,-1.95,9.46
9800,-1.11,1.12,-0.41,2.20,-1.91,9.44
9805,-1.06,0.93,0.10,2.23,-1.82,9.42
9810,-1.08,0.88,0.26,2.23,-1.81,9.41
9816,-1.11,0.83,0.38,2.23,-1.80,9.41
9820,-1.13,0.81,0.44,2.23,-1.80,9.40
9825,-1.17,0.78,0.51,2.23,-1.79,9.40
9831,-1.20,0.76,0.55,2.23,-1.79,9.40
9835,-1.23,0.75,0.59,2.23,-1.79,9.39
9840,-1.25,0.74,0.60,2.23,-1.79,9.39
9846,-1.29,0.72,0.63,2.23,-1.79,9.39
9850,-1.36,0.71,0.67,2.23,-1.79,9.38
9855,-1.43,0.70,0.71,2.23,-1.79,9.38
9860,-1.52,0.68,0.74,2.22,-1.80,9.37
9866,-1.61,0.67,0.76,2.22,-1.80,9.37
9870,-1.69,0.66,0.78,2.22,-1.80,9.36
9875,-1.74,0.66,0.79,2.22,-1.81,9.36
9880,-1.82,0.64,0.81,2.21,-1.81,9.35
9885,-1.96,0.62,0.83,2.21,-1.82,9.35
9890,-2.31,0.59,0.85,2.19,-1.83,9.32
9896,-3.15,0.50,0.88,2.16,-1.86,9.27
9900,-3.26,0.48,0.88,2.15,-1.86,9.27
9905,-3.34,0.47,0.88,2.15,-1.86,9.26
9910,-3.40,0.46,0.88,2.15,-1.86,9.26
9915,-3.55,0.42,0.89,2.14,-1.87,9.25
9920,-3.64,0.40,0.89,2.13,-1.87,9.24
9925,-3.70,0.38,0.89,2.13,-1.87,9.24
9931,-3.74,0.36,0.90,2.12,-1.87,9.23
9935,-3.86,0.31,0.91,2.11,-1.87,9.22
9940,-3.89,0.30,0.92,2.11,-1.87,9.22
9945,-3.90,0.29,0.92,2.11,-1.87,9.22
9950,-3.92,0.29,0.93,2.11,-1.87,9.22
9955,-3.93,0.28,0.94,2.10,-1.87,9.21
9960,-3.91,0.29,0.97,2.08,-1.86,9.21
9966,-3.88,0.32,1.01,2.07,-1.86,9.21
9970,-3.87,0.33,1.04,2.06,-1.86,9.21
9975,-3.86,0.34,1.06,2.05,-1.85,9.21
9981,-3.85,0.36,1.08,2.05,-1.85,9.21
9985,-3.83,0.38,1.12,2.04,-1.85,9.21
9990,-3.79,0.44,1.21,2.02,-1.84,9.21
9997,-3.75,0.49,1.29,2.00,-1.83,9.20
10001,-3.72,0.53,1.36,1.99,-1.83,9.20
10005,-3.66,0.62,1.54,1.97,-1.82,9.20
10010,-3.53,0.86,2.16,1.98,-1.81,9.16
10015,-3.47,0.89,2.34,2.00,-1.81,9.15
10020,-3.41,0.92,2.50,2.02,-1.81,9.14
10025,-3.24,0.98,2.81,2.05,-1.81,9.15
10030,-3.10,1.01,2.97,2.06,-1.81,9.17
10035,-2.41,1.23,3.75,2.05,-1.84,9.28
10040,-2.25,1.29,3.97,2.05,-1.84,9.30
10045,-2.01,1.40,4.34,2.04,-1.85,9.33
10050,-1.89,1.47,4.58,2.03,-1.85,9.34
10055,-1.80,1.53,4.87,2.02,-1.85,9.35
10060,-1.72,1.57,5.16,2.02,-1.85,9.35
10065,-1.64,1.63,5.48,2.01,-1.85,9.35
10070,-1.49,1.85,6.41,1.98,-1.85,9.37
10075,-1.46,1.94,6.65,1.98,-1.85,9.36
10081,-1.41,2.26,7.13,1.95,-1.85,9.35
10085,-1.40,2.32,7.19,1.94,-1.85,9.34
10090,-1.39,2.39,7.25,1.94,-1.84,9.34
10096,-1.40,2.66,7.31,1.92,-1.84,9.33
10100,-1.47,3.21,7.22,1.89,-1.83,9.35
10105,-1.55,3.45,7.11,1.87,-1.82,9.36
10110,-1.78,3.85,6.84,1.85,-1.82,9.40
10116,-1.90,4.02,6.72,1.84,-1.82,9.41
10120,-2.14,4.26,6.54,1.84,-1.82,9.43
10125,-2.45,4.48,6.36,1.84,-1.82,9.45
10131,-2.94,4.81,6.17,1.84,-1.82,9.46
10135,-3.58,5.18,6.05,1.84,-1.84,9.46
10140,-4.30,5.58,6.02,1.81,-1.88,9.46
10147,-4.55,5.73,6.02,1.80,-1.89,9.46
10151,-4.92,5.97,6.06,1.78,-1.91,9.46
10155,-5.14,6.12,6.08,1.78,-1.92,9.46
10160,-5.81,6.59,6.17,1.78,-1.95,9.46
10166,-6.03,6.74,6.19,1.79,-1.95,9.46
10170,-6.32,6.92,6.22,1.79,-1.95,9.46
10175,-6.51,7.05,6.24,1.79,-1.95,9.46
10181,-8.74,8.03,6.29,1.80,-1.99,9.46
10185,-9.10,8.18,6.29,1.79,-2.00,9.46
10190,-11.55,9.18,6.41,1.78,-2.03,9.55
10195,-11.92,9.35,6.47,1.77,-2.02,9.55
10200,-12.24,9.48,6.52,1.77,-2.02,9.55
10205,-13.82,10.11,6.98,1.74,-1.96,9.52
10210,-14.64,10.37,7.24,1.69,-1.93,9.51
10215,-14.81,10.42,7.29,1.68,-1.92,9.51
10220,-15.30,10.51,7.42,1.64,-1.91,9.52
10225,-16.07,10.63,7.59,1.55,-1.90,9.56
10230,-16.35,10.68,7.66,1.52,-1.90,9.59
10235,-16.68,10.74,7.75,1.50,-1.90,9.61
10240,-16.96,10.81,7.97,1.50,-1.90,9.61
10246,-17.11,10.86,8.18,1.50,-1.90,9.61
10250,-19.15,11.37,10.93,1.54,-1.84,9.58
10255,-20.55,11.94,12.76,1.59,-1.76,9.56
10260,-22.07,12.95,14.77,1.67,-1.64,9.54
10266,-22.61,13.65,15.65,1.72,-1.59,9.52
10270,-24.69,17.72,18.30,1.99,-1.42,9.40
10275,-25.53,18.92,18.84,2.06,-1.38,9.38
10280,-27.65,20.51,19.59,2.14,-1.35,9.37
10285,-31.02,23.03,21.41,2.24,-1.32,9.38
10290,-31.69,23.52,21.97,2.26,-1.32,9.38
10296,-32.04,23.77,22.28,2.27,-1.33,9.39
10300,-32.71,24.26,22.91,2.29,-1.34,9.39
10305,-35.44,27.00,26.39,2.35,-1.44,9.42
10310,-36.97,29.11,29.89,2.37,-1.54,9.43
10315,-40.08,33.03,37.54,2.37,-1.72,9.44
10320,-43.24,37.70,45.43,2.32,-1.91,9.44
10325,-43.90,38.68,46.93,2.30,-1.95,9.44
10331,-44.72,39.68,48.78,2.26,-1.98,9.44
10335,-45.99,42.65,51.94,2.19,-2.06,9.44
10340,-46.96,47.68,54.39,2.11,-2.19,9.44
10345,-47.71,62.82,59.02,1.98,-2.16,9.55
10350,-47.71,65.92,59.83,1.96,-2.08,9.59
10355,-47.69,67.86,60.36,1.95,-2.01,9.63
10361,-47.44,78.87,63.15,1.92,-1.07,10.12
10366,-47.28,89.07,66.66,1.83,-0.28,10.92
10370,-49.85,99.18,76.53,1.45,-0.04,11.57
10375,-54.58,100.58,80.37,1.31,-0.23,11.53
10381,-65.82,102.03,90.22,1.05,-0.70,11.26
10385,-80.26,102.94,102.90,0.82,-1.26,10.91
10390,-132.48,106.05,152.94,0.23,-3.79,9.60
10396,-136.22,106.41,157.05,0.26,-4.01,9.56
10400,-141.97,106.87,164.67,0.73,-4.48,9.72
10405,-133.58,97.94,162.46,2.66,-4.71,10.93
10410,-87.52,63.91,136.90,5.39,-3.77,12.58
10415,-72.97,53.94,129.04,5.98,-3.40,12.91
10420,-41.18,34.94,113.09,6.87,-2.39,13.40
10425,13.04,2.18,90.90,7.32,-0.34,13.66
10431,35.83,-14.50,84.68,7.12,0.73,13.54
10435,40.75,-21.21,84.39,6.96,0.94,13.42
10440,43.69,-25.99,84.50,6.82,1.04,13.29
10446,48.91,-39.43,86.19,6.36,1.04,12.77
10450,49.51,-52.43,89.43,5.92,0.65,12.15
10455,49.46,-58.18,91.21,5.72,0.34,11.81
10460,49.37,-63.88,93.10,5.53,-0.04,11.46
10466,49.14,-71.43,95.81,5.26,-0.63,10.98
10470,48.69,-78.13,98.49,5.03,-1.26,10.54
10475,47.33,-90.84,104.54,4.59,-2.83,9.65
10481,47.26,-101.21,109.54,4.26,-4.37,9.06
10486,47.76,-107.74,112.56,4.06,-5.49,8.73
10490,48.56,-112.47,114.40,3.90,-6.48,8.44
10496,49.81,-116.68,115.27,3.72,-7.52,8.10
10500,50.22,-118.50,115.09,3.60,-8.03,7.79
10505,50.42,-120.52,113.48,3.45,-8.62,7.28
10510,49.76,-122.28,108.81,3.29,-9.03,6.73
10516,47.20,-123.90,97.80,3.12,-9.31,6.17
10520,45.66,-124.57,91.17,3.05,-9.36,5.99
10525,43.48,-125.24,82.30,2.98,-9.41,5.84
10531,40.80,-125.60,71.90,2.90,-9.46,5.77
10535,25.54,-124.45,20.66,2.58,-9.53,5.87
10540,19.30,-122.42,5.51,2.47,-9.53,6.06
10546,17.89,-121.87,2.48,2.44,-9.53,6.11
10550,14.77,-120.60,-4.14,2.38,-9.53,6.19
10555,8.94,-118.07,-16.40,2.24,-9.40,6.28
10560,4.25,-115.91,-27.36,2.10,-9.20,6.33
10565,1.52,-114.61,-34.01,2.00,-9.03,6.35
10570,0.62,-114.18,-36.13,1.97,-8.97,6.36
10575,-2.70,-112.59,-43.76,1.82,-8.73,6.43
10581,-6.89,-110.51,-52.71,1.62,-8.36,6.64
10585,-8.49,-109.63,-55.36,1.55,-8.23,6.73
10590,-12.96,-106.63,-60.32,1.36,-7.89,7.15
10595,-15.38,-104.74,-63.63,1.28,-7.73,7.37
10600,-21.90,-97.90,-73.64,1.12,-7.36,7.90
10605,-23.48,-95.99,-77.48,1.08,-7.27,8.02
10611,-29.80,-89.08,-95.04,0.86,-6.74,8.51
10615,-32.02,-87.10,-101.52,0.76,-6.49,8.70
10620,-33.33,-86.15,-105.03,0.69,-6.33,8.81
10625,-37.10,-84.05,-113.87,0.50,-5.83,9.16
10630,-38.71,-83.30,-117.40,0.42,-5.60,9.32
10635,-41.68,-82.10,-123.50,0.27,-5.16,9.65
10640,-44.10,-81.13,-128.45,0.15,-4.71,10.03
10645,-44.44,-80.83,-129.62,0.13,-4.56,10.18
10650,-44.28,-80.78,-129.69,0.13,-4.53,10.21
10655,-43.83,-80.75,-129.54,0.13,-4.51,10.24
10660,-43.18,-80.74,-129.23,0.14,-4.50,10.25
10665,-42.50,-80.71,-128.82,0.15,-4.50,10.26
10670,-41.19,-80.63,-127.98,0.18,-4.52,10.24
10675,-38.36,-80.53,-126.12,0.23,-4.58,10.22
10681,-34.84,-80.40,-123.38,0.28,-4.66,10.17
10685,-29.22,-80.21,-118.11,0.33,-4.83,10.06
10690,-25.89,-80.21,-114.11,0.34,-4.92,9.99
10696,-23.42,-80.28,-110.65,0.35,-5.00,9.92
10700,-21.43,-80.42,-107.44,0.35,-5.09,9.82
10705,-19.00,-80.79,-103.02,0.32,-5.26,9.58
10710,-18.54,-80.93,-101.90,0.31,-5.35,9.47
10715,-17.42,-81.47,-99.00,0.22,-5.90,8.90
10720,-17.41,-81.50,-98.89,0.22,-5.94,8.87
10725,-17.50,-81.54,-98.78,0.21,-6.00,8.82
10731,-18.92,-81.65,-98.98,0.17,-6.28,8.59
10735,-22.62,-81.72,-99.65,0.10,-6.74,8.22
10740,-23.62,-81.67,-99.87,0.08,-6.80,8.16
10746,-27.82,-80.83,-101.10,0.05,-6.90,8.00
10750,-28.43,-80.54,-101.38,0.04,-6.89,7.99
10755,-29.01,-80.22,-101.67,0.04,-6.87,7.98
10760,-31.88,-78.56,-103.19,0.02,-6.73,7.97
10766,-33.07,-77.65,-103.94,0.02,-6.64,7.98
10770,-35.10,-75.92,-105.21,0.01,-6.44,7.98
10775,-38.92,-72.17,-107.47,0.01,-5.91,7.97
10781,-40.24,-70.63,-108.13,0.00,-5.69,7.98
10785,-41.72,-68.68,-108.76,-0.00,-5.42,8.00
10790,-43.79,-65.15,-109.38,-0.03,-4.87,8.14
10796,-44.32,-63.96,-109.39,-0.05,-4.66,8.23
10800,-44.83,-62.41,-109.18,-0.09,-4.31,8.37
10805,-45.15,-60.71,-108.08,-0.13,-3.65,8.60
10810,-45.27,-59.98,-107.21,-0.16,-3.29,8.72
10815,-45.35,-59.53,-106.33,-0.18,-3.03,8.81
10820,-45.07,-59.10,-103.42,-0.21,-2.58,8.95
10825,-44.69,-58.82,-101.33,-0.22,-2.36,9.02
10831,-44.29,-58.51,-99.25,-0.24,-2.18,9.09
10835,-41.02,-57.47,-85.55,-0.33,-1.79,9.30
10840,-40.04,-57.17,-82.31,-0.35,-1.76,9.33
10846,-38.81,-56.83,-78.48,-0.37,-1.75,9.34
10850,-34.49,-55.47,-66.02,-0.43,-1.56,9.29
10855,-33.03,-54.95,-62.20,-0.45,-1.49,9.26
10860,-29.54,-53.52,-52.90,-0.53,-1.28,9.15
10865,-25.21,-51.36,-41.16,-0.67,-0.94,8.91
10870,-23.36,-50.17,-35.63,-0.74,-0.77,8.77
10875,-21.67,-48.92,-30.30,-0.82,-0.61,8.63
10880,-19.36,-46.87,-22.97,-0.91,-0.51,8.50
10885,-18.05,-45.51,-18.85,-0.95,-0.53,8.48
10890,-15.47,-43.37,-13.14,-0.97,-0.77,8.58
10896,-13.63,-42.17,-10.12,-0.98,-1.03,8.71
10900,-8.91,-40.15,-3.76,-1.00,-1.74,8.98
10905,-5.63,-39.47,1.80,-1.05,-2.36,9.02
10911,-3.87,-39.40,6.96,-1.13,-2.80,8.88
10915,-3.42,-39.47,9.29,-1.17,-2.95,8.70
10920,-3.19,-39.55,11.26,-1.21,-3.05,8.52
10925,-2.91,-39.90,18.22,-1.35,-3.27,7.72
10930,-2.98,-39.89,21.80,-1.43,-3.33,7.25
10935,-3.12,-39.34,23.59,-1.47,-3.34,7.00
10940,-3.53,-35.93,26.80,-1.50,-3.43,6.62
10946,-3.83,-32.11,28.19,-1.50,-3.51,6.49
10950,-3.99,-29.56,28.69,-1.49,-3.57,6.44
10955,-4.32,-23.92,29.31,-1.44,-3.73,6.37
10960,-4.56,-20.37,29.54,-1.40,-3.82,6.36
10965,-4.81,-16.80,29.60,-1.34,-3.91,6.35
10970,-5.27,-9.70,29.00,-1.20,-4.04,6.35
10975,-5.92,1.18,23.50,-0.92,-4.17,6.37
10980,-6.08,4.27,20.39,-0.85,-4.20,6.38
10985,-6.31,8.21,15.84,-0.76,-4.22,6.40
10990,-7.02,15.28,8.00,-0.65,-4.24,6.46
10995,-8.29,24.12,1.76,-0.52,-4.26,6.59
11000,-8.57,25.73,1.59,-0.49,-4.26,6.62
11005,-9.12,28.98,2.02,-0.44,-4.26,6.68
11010,-9.57,31.98,3.44,-0.38,-4.25,6.73
11015,-9.99,35.04,6.67,-0.31,-4.25,6.80
11020,-10.73,41.28,14.99,-0.14,-4.25,6.92
11025,-11.27,47.17,23.03,0.03,-4.24,7.01
11030,-11.56,50.51,26.43,0.14,-4.22,7.07
11035,-11.82,53.29,28.47,0.26,-4.20,7.10
11040,-11.95,54.70,29.06,0.35,-4.10,6.91
11045,-12.05,55.88,29.37,0.44,-3.92,6.52
11050,-11.98,57.45,28.99,0.60,-3.43,5.40
11055,-11.66,58.45,28.03,0.76,-2.91,4.14
11060,-11.02,59.51,26.08,1.11,-2.46,2.93
11065,-10.09,60.32,22.93,1.95,-2.19,2.06
11070,-8.84,60.58,17.89,3.60,-2.30,1.94
11075,-7.69,59.75,12.63,5.68,-2.87,2.71
11081,-6.10,56.58,3.94,8.93,-3.59,4.60
11085,-5.24,54.04,-1.79,10.60,-3.82,5.79
11090,-4.74,52.63,-7.44,11.55,-3.57,6.45
11096,-4.46,51.76,-12.85,12.05,-2.98,6.89
11100,-2.83,51.61,-21.86,12.11,-2.01,7.20
11105,0.24,52.57,-29.22,11.88,-1.22,7.35
11111,6.55,55.24,-37.86,11.18,-0.44,7.56
11117,14.88,61.28,-43.37,10.04,0.05,7.75
11120,26.26,72.62,-45.07,8.35,0.55,7.99
11125,41.81,95.39,-39.53,5.83,1.01,8.33
11130,51.13,113.85,-25.15,4.19,1.28,8.55
11135,54.18,120.93,-15.86,3.62,1.34,8.63
11140,56.91,127.95,-2.17,3.05,1.35,8.79
11147,60.14,134.39,25.87,2.41,1.03,9.14
11150,61.56,133.03,34.94,2.37,0.60,9.30
11156,62.73,129.93,41.03,2.36,-0.12,9.43
11161,65.42,123.22,44.89,2.40,-1.69,9.52
11166,70.18,116.62,42.99,2.48,-3.43,9.33
11170,76.56,111.14,37.04,2.60,-5.03,8.97
11175,98.03,103.07,6.24,3.25,-7.93,7.30
11181,109.42,102.00,-6.67,3.67,-8.35,6.66
11185,125.49,102.54,-22.29,4.28,-8.03,5.93
11190,150.70,106.08,-37.88,5.12,-6.23,5.32
11197,167.36,109.32,-45.23,5.62,-4.55,5.02
11201,175.85,111.51,-47.83,5.84,-3.41,4.92
11205,185.34,114.66,-48.30,6.02,-1.30,4.98
11211,186.99,114.94,-46.86,6.01,-0.23,5.16
11215,186.77,113.69,-44.75,5.94,0.60,5.49
11220,169.04,96.12,-31.07,5.05,2.36,7.81
11225,152.22,84.01,-22.68,4.49,2.59,8.99
11230,142.98,78.17,-18.74,4.22,2.60,9.50
11235,111.49,63.20,-6.50,3.55,2.35,10.48
11240,82.09,54.81,4.41,3.19,1.98,10.75
11246,52.97,48.54,14.73,2.93,1.58,10.87
11250,10.56,41.86,29.18,2.67,0.91,10.71
11255,-23.01,38.30,39.85,2.55,0.23,10.37
11262,-25.77,38.03,40.03,2.54,0.10,10.29
11266,-23.30,37.58,36.71,2.54,-0.08,10.13
11270,-14.08,37.05,31.60,2.57,-0.21,10.01
11275,-3.66,36.54,26.17,2.59,-0.31,9.91
11280,10.60,34.82,18.89,2.64,-0.58,9.72
11285,19.86,31.96,13.30,2.68,-0.99,9.53
11290,21.26,30.70,11.62,2.69,-1.17,9.47
11296,21.39,28.33,9.30,2.68,-1.49,9.38
11300,19.56,26.94,8.21,2.67,-1.66,9.35
11305,16.86,25.78,7.32,2.65,-1.81,9.33
11310,11.90,24.14,6.22,2.59,-2.01,9.33
11315,4.89,22.33,5.17,2.46,-2.19,9.34
11320,3.03,21.76,4.75,2.41,-2.22,9.35
11325,-0.09,20.13,3.64,2.26,-2.23,9.37
11330,-0.49,19.73,3.41,2.23,-2.23,9.38
11335,-0.96,19.13,3.09,2.20,-2.21,9.38
11340,-1.61,17.29,2.31,2.13,-2.16,9.38
11346,-1.82,15.37,1.69,2.09,-2.11,9.38
11350,-1.78,14.77,1.53,2.08,-2.09,9.38
11355,-1.64,13.74,1.37,2.07,-2.08,9.37
11360,-1.53,13.04,1.37,2.06,-2.09,9.36
11365,-1.38,12.32,1.42,2.05,-2.11,9.34
11370,-1.12,11.55,1.57,2.04,-2.14,9.31
11375,-0.48,10.74,1.93,2.02,-2.21,9.28
11381,-0.14,10.54,2.03,2.02,-2.23,9.27
11385,0.49,10.25,2.15,2.02,-2.24,9.26
11390,1.28,9.85,2.23,2.01,-2.24,9.26
11395,2.09,9.48,2.29,2.00,-2.22,9.26
11400,2.92,9.04,2.32,2.00,-2.18,9.30
11405,3.55,8.63,2.35,2.00,-2.12,9.35
11411,3.71,8.52,2.36,2.00,-2.10,9.37
11415,3.87,8.41,2.37,2.00,-2.08,9.40
11420,3.96,8.15,2.40,1.99,-2.03,9.45
11425,3.89,7.81,2.43,1.97,-1.96,9.50
11430,3.81,7.76,2.42,1.96,-1.95,9.49
11435,3.59,7.67,2.37,1.94,-1.93,9.48
11440,3.51,7.63,2.33,1.93,-1.93,9.47
11446,3.45,7.60,2.29,1.93,-1.93,9.46
11450,3.31,7.52,2.16,1.91,-1.93,9.44
11455,3.09,7.32,1.93,1.89,-1.93,9.42
11460,2.79,6.90,1.57,1.85,-1.94,9.39
11465,2.64,6.63,1.36,1.84,-1.95,9.38
11470,2.31,5.79,1.00,1.80,-1.97,9.35
11475,2.28,5.67,0.97,1.79,-1.98,9.35
11480,2.20,5.38,0.91,1.78,-1.99,9.34
11485,2.10,4.44,0.78,1.78,-2.01,9.27
11490,2.11,4.18,0.76,1.79,-2.01,9.26
11495,2.13,3.96,0.74,1.78,-2.01,9.26
11500,2.15,3.72,0.73,1.78,-2.00,9.26
11505,2.20,3.43,0.71,1.77,-1.99,9.26
11511,2.24,3.22,0.70,1.76,-1.99,9.27
11516,2.37,2.73,0.68,1.71,-1.97,9.32
11520,2.44,2.53,0.69,1.68,-1.96,9.36
11525,2.62,2.23,0.80,1.64,-1.95,9.42
11530,2.68,2.18,0.89,1.63,-1.95,9.44
11535,2.73,2.15,0.99,1.63,-1.95,9.46
11540,2.78,2.13,1.16,1.63,-1.95,9.48
11546,2.80,2.09,1.27,1.63,-1.95,9.50
11550,2.78,2.01,1.48,1.65,-1.96,9.55
11555,2.65,1.83,1.68,1.71,-1.97,9.60
11560,2.60,1.80,1.71,1.73,-1.97,9.60
11565,2.56,1.76,1.72,1.74,-1.98,9.60
11570,2.49,1.72,1.72,1.77,-1.97,9.58
11575,2.42,1.69,1.70,1.77,-1.97,9.56
11580,2.35,1.67,1.66,1.77,-1.96,9.53
11585,2.08,1.51,1.55,1.68,-1.93,9.49
11590,1.90,1.33,1.47,1.62,-1.92,9.47
11596,1.83,1.25,1.44,1.61,-1.91,9.47
11600,1.62,1.00,1.34,1.58,-1.90,9.49
11605,1.35,0.75,1.18,1.56,-1.88,9.51
11610,0.98,0.45,0.93,1.56,-1.86,9.55
11615,0.54,0.18,0.59,1.57,-1.86,9.61
11620,0.31,-0.01,0.36,1.58,-1.86,9.64
11625,0.26,-0.07,0.29,1.59,-1.87,9.64
11630,0.20,-0.34,0.16,1.64,-1.89,9.63
11635,0.22,-0.52,0.13,1.66,-1.90,9.61
11640,0.25,-0.66,0.13,1.69,-1.91,9.58
11645,0.38,-0.95,0.13,1.73,-1.92,9.53
11650,0.48,-1.12,0.14,1.76,-1.93,9.49
11655,0.52,-1.17,0.15,1.77,-1.93,9.48
11661,0.60,-1.26,0.17,1.78,-1.94,9.46
11665,0.70,-1.35,0.20,1.79,-1.95,9.45
11670,0.79,-1.43,0.25,1.79,-1.95,9.44
11675,0.83,-1.47,0.28,1.79,-1.95,9.45
11680,0.87,-1.51,0.32,1.79,-1.94,9.45
11685,0.91,-1.59,0.40,1.79,-1.94,9.46
11690,0.91,-1.62,0.44,1.78,-1.93,9.47
11695,0.89,-1.66,0.49,1.78,-1.92,9.50
11700,0.75,-1.70,0.53,1.77,-1.89,9.57
11705,0.68,-1.70,0.52,1.76,-1.88,9.58
11710,0.61,-1.70,0.50,1.76,-1.88,9.59
11715,0.48,-1.66,0.45,1.76,-1.87,9.60
11720,0.33,-1.59,0.39,1.76,-1.86,9.60
11725,0.17,-1.49,0.31,1.76,-1.86,9.60
11730,-0.28,-1.18,0.01,1.77,-1.86,9.57
11735,-0.42,-1.09,-0.10,1.77,-1.86,9.55
11740,-0.51,-1.04,-0.18,1.78,-1.86,9.53
11745,-0.66,-0.94,-0.31,1.79,-1.87,9.49
11750,-0.73,-0.88,-0.36,1.80,-1.87,9.46
11755,-0.81,-0.79,-0.42,1.81,-1.88,9.41
11761,-0.85,-0.65,-0.46,1.82,-1.90,9.38
11765,-0.85,-0.64,-0.47,1.82,-1.91,9.38
11770,-0.85,-0.63,-0.48,1.82,-1.91,9.38
11775,-0.84,-0.62,-0.49,1.82,-1.92,9.39
11780,-0.83,-0.62,-0.51,1.80,-1.92,9.40
11785,-0.80,-0.64,-0.54,1.79,-1.94,9.41
11790,-0.79,-0.66,-0.54,1.78,-1.94,9.41
11795,-0.76,-0.68,-0.54,1.77,-1.95,9.42
11800,-0.75,-0.69,-0.53,1.76,-1.95,9.42
11805,-0.74,-0.70,-0.51,1.76,-1.95,9.42
11810,-0.70,-0.72,-0.46,1.76,-1.96,9.42
11815,-0.64,-0.75,-0.34,1.75,-1.96,9.41
11820,-0.62,-0.76,-0.30,1.75,-1.96,9.41
11825,-0.52,-0.80,-0.04,1.74,-1.98,9.38
11830,-0.50,-0.80,0.03,1.72,-1.99,9.38
11835,-0.49,-0.77,0.07,1.72,-1.99,9.38
11840,-0.47,-0.68,0.12,1.71,-1.99,9.38
11845,-0.44,-0.59,0.15,1.72,-1.99,9.39
11850,-0.37,-0.43,0.18,1.73,-1.99,9.42
11855,-0.32,-0.35,0.19,1.73,-1.99,9.45
11860,-0.28,-0.30,0.20,1.74,-1.99,9.48
11865,-0.26,-0.28,0.20,1.74,-1.99,9.50
11870,-0.24,-0.26,0.20,1.74,-1.99,9.54
11875,-0.23,-0.27,0.20,1.73,-1.98,9.56
11881,-0.22,-0.28,0.19,1.73,-1.98,9.57
11885,-0.20,-0.37,0.19,1.70,-1.96,9.59
11890,-0.20,-0.44,0.19,1.69,-1.96,9.59
11895,-0.20,-0.53,0.19,1.67,-1.95,9.59
11900,-0.21,-0.62,0.19,1.65,-1.95,9.59
11905,-0.23,-0.76,0.19,1.63,-1.94,9.58
11911,-0.25,-0.81,0.20,1.62,-1.94,9.57
11916,-0.31,-1.01,0.19,1.57,-1.94,9.52
11920,-0.32,-1.02,0.18,1.57,-1.94,9.52
11925,-0.32,-1.02,0.18,1.57,-1.94,9.52
11930,-0.32,-1.02,0.17,1.56,-1.94,9.52
11935,-0.32,-1.01,0.14,1.54,-1.95,9.53
11940,-0.32,-1.00,0.12,1.53,-1.95,9.53
11946,-0.32,-0.99,0.09,1.53,-1.95,9.53
11950,-0.31,-0.99,0.05,1.53,-1.95,9.52
11955,-0.30,-1.00,0.03,1.53,-1.95,9.52
11961,-0.29,-1.02,0.01,1.53,-1.95,9.52
11965,-0.24,-1.07,-0.04,1.53,-1.95,9.52
11970,-0.23,-1.08,-0.05,1.53,-1.95,9.52
11975,-0.21,-1.08,-0.06,1.53,-1.95,9.52
11981,-0.19,-1.09,-0.09,1.54,-1.95,9.53
11985,-0.18,-1.09,-0.13,1.55,-1.94,9.53
11990,-0.17,-1.09,-0.15,1.55,-1.94,9.53
11995,-0.17,-1.09,-0.17,1.56,-1.94,9.53
12000,-0.17,-1.09,-0.18,1.56,-1.93,9.53
12005,-0.17,-1.10,-0.20,1.56,-1.93,9.53
12011,-0.15,-1.11,-0.26,1.55,-1.93,9.53
12015,-0.14,-1.11,-0.31,1.53,-1.92,9.52
12020,-0.13,-1.12,-0.38,1.51,-1.92,9.49
12025,-0.13,-1.13,-0.41,1.49,-1.92,9.47
12030,-0.12,-1.15,-0.43,1.48,-1.92,9.43
12035,-0.11,-1.24,-0.45,1.47,-1.92,9.37
12040,-0.08,-1.33,-0.45,1.47,-1.93,9.34
12045,-0.06,-1.39,-0.45,1.47,-1.94,9.33
12050,-0.03,-1.45,-0.45,1.47,-1.95,9.33
12055,0.08,-1.61,-0.45,1.47,-1.96,9.33
12062,0.13,-1.65,-0.46,1.47,-1.95,9.34
12066,0.18,-1.68,-0.49,1.48,-1.94,9.36
12070,0.25,-1.70,-0.54,1.50,-1.92,9.38
12075,0.27,-1.70,-0.56,1.50,-1.91,9.38
12080,0.29,-1.69,-0.58,1.50,-1.91,9.39
12085,0.33,-1.68,-0.61,1.50,-1.91,9.41
12090,0.36,-1.67,-0.64,1.51,-1.90,9.43
12096,0.39,-1.67,-0.66,1.51,-1.90,9.44
12100,0.43,-1.65,-0.72,1.52,-1.91,9.45
12105,0.51,-1.62,-0.92,1.54,-1.91,9.47
12110,0.55,-1.58,-1.08,1.54,-1.91,9.49
12115,0.59,-1.50,-1.29,1.56,-1.92,9.52
12120,0.60,-1.47,-1.38,1.56,-1.92,9.53
12125,0.62,-1.40,-1.51,1.58,-1.93,9.54
12130,0.64,-1.30,-1.62,1.60,-1.93,9.53
12135,0.67,-1.16,-1.66,1.64,-1.94,9.49
12140,0.68,-1.12,-1.65,1.64,-1.94,9.48
12145,0.72,-1.06,-1.63,1.66,-1.94,9.46
12150,0.80,-0.96,-1.58,1.67,-1.94,9.44
12155,0.89,-0.86,-1.53,1.67,-1.94,9.42
12161,1.02,-0.74,-1.48,1.67,-1.94,9.41
12166,1.20,-0.53,-1.40,1.67,-1.93,9.41
12170,1.24,-0.48,-1.39,1.67,-1.93,9.41
12175,1.29,-0.41,-1.37,1.66,-1.93,9.41
12180,1.32,-0.34,-1.35,1.65,-1.92,9.42
12185,1.34,-0.30,-1.34,1.63,-1.92,9.42
12190,1.34,-0.26,-1.33,1.62,-1.92,9.42
12196,1.30,0.04,-1.26,1.56,-1.92,9.42
12200,1.27,0.11,-1.25,1.56,-1.92,9.42
12205,1.24,0.19,-1.23,1.55,-1.93,9.42
12211,1.17,0.29,-1.21,1.55,-1.93,9.43
12215,1.09,0.36,-1.19,1.54,-1.94,9.44
12220,1.01,0.38,-1.19,1.54,-1.94,9.44
12225,0.81,0.37,-1.18,1.54,-1.94,9.45
12231,0.74,0.33,-1.18,1.55,-1.94,9.46
12236,0.70,0.30,-1.18,1.56,-1.93,9.46
12240,0.63,0.24,-1.18,1.58,-1.92,9.46
12246,0.59,0.19,-1.18,1.60,-1.90,9.45
12250,0.56,0.16,-1.19,1.60,-1.88,9.45
12255,0.51,0.12,-1.19,1.60,-1.84,9.42
12261,0.48,0.11,-1.19,1.59,-1.83,9.39
12265,0.46,0.11,-1.19,1.59,-1.83,9.36
12270,0.43,0.13,-1.20,1.61,-1.87,9.29
12275,0.43,0.16,-1.20,1.63,-1.88,9.27
12280,0.39,0.24,-1.22,1.69,-1.92,9.26
12285,0.37,0.27,-1.23,1.71,-1.93,9.26
12290,0.28,0.34,-1.23,1.77,-1.95,9.28
12296,-0.14,0.51,-1.18,1.94,-1.97,9.35
12300,-0.51,0.59,-1.03,2.05,-1.96,9.41
12305,-0.55,0.60,-1.02,2.06,-1.96,9.41
12311,-0.57,0.60,-1.01,2.07,-1.96,9.42
12315,-0.62,0.62,-0.98,2.08,-1.96,9.42
12320,-0.80,0.67,-0.84,2.12,-1.95,9.43
12325,-0.90,0.71,-0.73,2.13,-1.94,9.43
12330,-1.16,0.84,-0.35,2.17,-1.92,9.43
12335,-1.38,1.02,0.12,2.18,-1.90,9.39
12340,-1.52,1.16,0.45,2.19,-1.89,9.36
12346,-1.65,1.31,0.80,2.18,-1.87,9.33
12350,-1.70,1.38,0.95,2.18,-1.87,9.31
12355,-1.75,1.46,1.13,2.18,-1.86,9.29
12360,-1.80,1.52,1.29,2.17,-1.86,9.27
12365,-1.86,1.60,1.53,2.15,-1.85,9.25
12370,-1.87,1.62,1.57,2.15,-1.85,9.25
12375,-1.88,1.64,1.65,2.14,-1.85,9.24
12381,-1.94,1.67,1.82,2.12,-1.85,9.24
12385,-2.01,1.68,1.97,2.09,-1.85,9.24
12390,-2.08,1.62,2.12,2.04,-1.85,9.29
12395,-2.08,1.58,2.14,2.03,-1.85,9.32
12400,-2.08,1.53,2.14,2.02,-1.85,9.34
12405,-2.06,1.48,2.14,2.01,-1.85,9.37
12411,-2.02,1.42,2.13,2.00,-1.85,9.39
12415,-1.98,1.37,2.12,1.99,-1.85,9.41
12420,-1.94,1.33,2.12,1.99,-1.85,9.42
12425,-1.88,1.25,2.11,1.98,-1.85,9.45
12430,-1.81,1.16,2.11,1.97,-1.85,9.47
12435,-1.79,1.13,2.11,1.97,-1.85,9.47
12440,-1.74,1.07,2.10,1.96,-1.85,9.49
12446,-1.64,0.95,2.10,1.96,-1.85,9.51
12450,-1.55,0.85,2.10,1.95,-1.85,9.52
12455,-1.23,0.55,2.18,1.94,-1.86,9.54
12461,-1.10,0.44,2.22,1.93,-1.86,9.55
12465,-0.98,0.34,2.25,1.92,-1.86,9.55
12470,-0.89,0.28,2.28,1.91,-1.86,9.55
12475,-0.70,0.17,2.33,1.89,-1.86,9.54
12480,-0.63,0.14,2.35,1.87,-1.87,9.54
12485,-0.60,0.12,2.37,1.86,-1.87,9.54
12490,-0.57,0.10,2.39,1.85,-1.88,9.53
12495,-0.56,0.11,2.40,1.85,-1.89,9.53
12500,-0.56,0.12,2.41,1.84,-1.89,9.53
12505,-0.58,0.18,2.44,1.84,-1.90,9.53
12510,-0.75,0.89,2.96,1.78,-2.00,9.53
12515,-0.76,0.96,3.03,1.78,-2.00,9.53
12520,-0.76,0.99,3.06,1.78,-2.01,9.53
12525,-0.77,1.02,3.08,1.78,-2.01,9.52
12530,-0.77,1.06,3.13,1.78,-2.01,9.52
12535,-0.80,1.22,3.29,1.77,-2.03,9.52
12540,-0.81,1.32,3.39,1.77,-2.03,9.51
12545,-0.82,1.43,3.51,1.77,-2.03,9.50
12550,-0.84,1.65,3.68,1.77,-2.04,9.49
12555,-0.91,1.81,3.74,1.78,-2.04,9.48
12561,-0.99,1.96,3.76,1.78,-2.03,9.47
12566,-1.13,2.13,3.75,1.78,-2.02,9.45
12570,-1.29,2.32,3.70,1.78,-2.01,9.42
12575,-1.77,2.78,3.41,1.76,-1.99,9.30
12580,-2.07,2.94,3.23,1.75,-1.99,9.26
12585,-2.29,3.05,3.09,1.74,-1.99,9.24
12590,-2.70,3.23,2.85,1.73,-1.99,9.22
12596,-4.40,3.93,2.08,1.71,-2.00,9.24
12600,-4.70,4.11,1.97,1.70,-2.00,9.25
12605,-5.08,4.33,1.82,1.69,-2.00,9.26
12611,-5.31,4.45,1.72,1.69,-2.01,9.27
12615,-5.46,4.53,1.66,1.69,-2.01,9.28
12620,-5.85,4.75,1.53,1.68,-2.01,9.29
12625,-6.14,4.93,1.43,1.66,-2.01,9.30
12631,-6.26,5.02,1.39,1.66,-2.01,9.31
12635,-6.45,5.18,1.32,1.64,-2.01,9.32
12640,-7.37,6.04,1.29,1.60,-2.02,9.38
12645,-7.59,6.24,1.37,1.63,-2.03,9.39
12650,-7.75,6.37,1.42,1.65,-2.03,9.39
12655,-7.93,6.50,1.46,1.66,-2.03,9.39
12661,-8.88,7.17,1.71,1.72,-2.03,9.39
12665,-8.97,7.23,1.73,1.72,-2.03,9.39
12670,-9.05,7.29,1.76,1.72,-2.03,9.39
12675,-10.53,8.44,2.40,1.75,-2.05,9.40
12680,-11.29,9.06,2.86,1.74,-2.06,9.40
12685,-12.61,10.13,3.68,1.73,-2.09,9.40
12690,-13.08,10.47,3.98,1.71,-2.11,9.40
12696,-13.26,10.61,4.10,1.71,-2.11,9.40
12700,-13.39,10.70,4.18,1.70,-2.12,9.40
12705,-13.45,10.75,4.21,1.70,-2.12,9.40
12711,-13.53,10.82,4.27,1.70,-2.12,9.40
12715,-13.84,11.03,4.47,1.68,-2.13,9.40
12720,-14.05,11.16,4.60,1.67,-2.13,9.40
12726,-14.23,11.25,4.72,1.67,-2.14,9.40
12730,-14.51,11.38,4.91,1.66,-2.14,9.40
12735,-16.05,12.06,6.01,1.60,-2.17,9.41
12740,-16.58,12.31,6.43,1.60,-2.18,9.40
12746,-20.57,15.55,10.40,1.68,-2.19,9.40
12750,-20.76,15.84,10.61,1.68,-2.19,9.40
12755,-20.94,16.12,10.82,1.69,-2.19,9.40
12760,-21.05,16.30,10.95,1.70,-2.19,9.40
12765,-21.47,17.00,11.44,1.72,-2.20,9.40
12770,-21.70,17.42,11.73,1.73,-2.20,9.40
12775,-21.86,17.73,11.94,1.74,-2.20,9.40
12781,-21.98,17.95,12.10,1.74,-2.20,9.40
12785,-22.12,18.22,12.29,1.75,-2.20,9.40
12790,-22.29,18.54,12.52,1.76,-2.20,9.41
12795,-22.81,19.53,13.26,1.79,-2.21,9.41
12800,-23.03,19.98,13.60,1.81,-2.21,9.41
12805,-23.58,21.67,14.56,1.85,-2.22,9.41
12811,-23.76,22.36,14.90,1.86,-2.22,9.42
12815,-23.89,22.91,15.16,1.87,-2.22,9.42
12820,-23.99,23.33,15.36,1.88,-2.23,9.42
12825,-24.40,25.21,16.20,1.91,-2.23,9.43
12830,-25.34,30.09,18.39,2.00,-2.26,9.45
12835,-25.55,31.31,18.91,2.03,-2.26,9.45
12840,-25.69,32.56,19.33,2.04,-2.27,9.45
12846,-25.83,34.21,19.81,2.06,-2.27,9.46
12850,-26.16,64.58,26.14,2.21,-2.10,9.67
12855,-26.55,71.85,28.19,2.22,-1.94,9.82
12862,-26.92,75.26,29.14,2.22,-1.86,9.90
12865,-28.99,88.69,34.74,2.19,-1.45,10.31
12870,-30.65,95.08,38.41,2.15,-1.22,10.54
12876,-35.26,108.22,47.85,1.98,-0.80,11.02
12880,-50.93,128.06,71.69,1.33,-0.25,11.74
12885,-59.51,134.04,82.60,1.01,-0.17,11.91
12890,-67.21,138.57,93.56,0.75,-0.10,12.00
12895,-73.60,141.64,102.95,0.51,-0.15,12.06
12900,-78.31,143.55,109.60,0.34,-0.44,12.09
12905,-91.91,150.12,138.50,0.21,-2.16,12.06
12910,-96.55,155.02,151.42,0.27,-3.29,12.03
12915,-96.93,163.17,161.44,0.67,-4.40,12.12
12920,-93.67,174.49,164.85,0.94,-4.90,12.69
12925,-90.30,181.04,165.86,1.09,-5.05,13.23
12930,-77.14,194.38,165.46,1.43,-5.09,15.14
12935,-58.18,198.05,160.78,2.04,-4.93,17.44
12940,-50.22,193.47,156.73,2.37,-4.79,18.23
12945,-43.93,188.42,152.89,2.64,-4.65,18.72
12950,-29.09,170.88,140.96,3.30,-4.26,19.29
12955,-18.13,149.74,129.27,3.81,-3.86,19.14
12960,-5.44,119.09,115.04,4.33,-3.30,18.19
12965,11.64,59.00,93.23,4.88,-2.23,15.11
12970,16.42,27.25,86.49,4.98,-1.78,13.32
12975,18.24,8.81,83.80,4.99,-1.57,12.26
12980,19.41,-36.09,82.02,4.93,-1.39,10.07
12985,19.63,-72.29,82.68,4.82,-1.58,8.65
12990,20.33,-101.66,87.60,4.64,-2.55,7.76
12997,22.31,-114.08,92.92,4.44,-3.86,7.56
13000,23.70,-116.61,94.49,4.37,-4.33,7.55
13005,25.27,-118.52,95.97,4.31,-4.78,7.54
13011,30.35,-119.88,99.78,4.05,-6.08,7.49
13015,33.05,-119.95,100.51,3.90,-6.69,7.46
13020,34.49,-119.92,99.98,3.76,-7.18,7.41
13025,34.78,-119.77,86.82,3.29,-8.40,6.65
13031,34.27,-119.88,83.56,3.25,-8.51,6.53
13035,33.31,-120.12,79.47,3.20,-8.62,6.40
13040,29.23,-121.21,66.64,3.08,-8.81,6.08
13045,19.69,-124.12,35.03,2.91,-8.94,5.68
13050,16.86,-124.93,27.07,2.85,-8.93,5.65
13055,7.78,-126.33,6.82,2.61,-8.82,5.65
13062,5.18,-126.38,2.24,2.53,-8.76,5.66
13065,3.27,-126.34,-0.96,2.47,-8.71,5.68
13070,-3.37,-125.50,-11.51,2.28,-8.40,5.75
13075,-4.84,-125.16,-13.75,2.24,-8.31,5.77
13080,-13.10,-122.94,-26.39,2.07,-7.83,6.05
13085,-19.79,-120.96,-38.27,1.97,-7.57,6.46
13090,-22.73,-120.07,-44.43,1.93,-7.50,6.70
13096,-23.86,-119.74,-46.94,1.91,-7.48,6.79
13100,-29.50,-118.19,-61.54,1.78,-7.46,7.26
13105,-34.65,-117.34,-74.66,1.64,-7.40,7.70
13111,-37.06,-117.07,-80.24,1.56,-7.32,7.90
13115,-41.49,-116.68,-89.56,1.40,-7.03,8.34
13120,-43.63,-116.52,-93.63,1.31,-6.81,8.57
13126,-44.74,-116.44,-95.67,1.26,-6.68,8.70
13130,-46.78,-116.28,-99.30,1.15,-6.43,8.95
13135,-48.73,-116.12,-102.63,1.03,-6.14,9.22
13140,-50.20,-115.95,-105.68,0.92,-5.87,9.46
13146,-51.39,-115.73,-109.15,0.76,-5.60,9.74
13150,-51.30,-115.45,-111.07,0.70,-5.53,9.83
13155,-50.99,-115.28,-111.79,0.69,-5.51,9.87
13160,-49.53,-114.63,-113.82,0.67,-5.46,10.00
13165,-48.64,-114.29,-114.56,0.67,-5.44,10.05
13170,-48.10,-114.10,-115.00,0.67,-5.43,10.09
13176,-44.57,-113.08,-117.25,0.68,-5.35,10.33
13180,-42.72,-112.65,-118.16,0.69,-5.32,10.46
13185,-41.93,-112.50,-118.49,0.69,-5.31,10.51
13190,-39.96,-112.45,-118.99,0.71,-5.30,10.66
13195,-39.62,-112.70,-118.96,0.72,-5.30,10.68
13200,-39.43,-113.20,-118.84,0.72,-5.31,10.65
13205,-39.14,-113.96,-118.60,0.72,-5.35,10.54
13211,-39.08,-114.10,-118.56,0.72,-5.36,10.51
13215,-39.00,-114.28,-118.50,0.72,-5.37,10.48
13220,-38.71,-114.65,-118.37,0.71,-5.40,10.39
13225,-38.07,-115.08,-118.19,0.68,-5.46,10.27
13230,-37.72,-115.24,-118.08,0.66,-5.49,10.23
13235,-37.32,-115.24,-117.93,0.61,-5.51,10.20
13240,-37.12,-115.19,-117.84,0.59,-5.52,10.19
13246,-36.47,-114.26,-116.47,0.41,-5.54,10.19
13250,-36.51,-113.37,-115.56,0.32,-5.50,10.20
13255,-36.66,-112.18,-114.47,0.21,-5.42,10.21
13261,-36.82,-109.99,-112.48,0.05,-5.24,10.21
13265,-36.81,-108.86,-111.37,-0.02,-5.13,10.19
13270,-36.80,-108.25,-110.78,-0.06,-5.07,10.17
13276,-36.79,-107.86,-110.41,-0.08,-5.04,10.16
13281,-36.74,-106.66,-109.31,-0.13,-4.94,10.12
13285,-36.05,-103.94,-107.06,-0.21,-4.77,9.97
13290,-34.30,-99.72,-104.29,-0.29,-4.57,9.79
13295,-29.59,-90.05,-98.71,-0.46,-4.05,9.59
13300,-27.38,-85.40,-95.70,-0.59,-3.68,9.55
13305,-26.84,-84.24,-94.87,-0.63,-3.56,9.55
13311,-25.91,-82.22,-93.38,-0.71,-3.34,9.54
13315,-24.08,-77.87,-89.86,-0.90,-2.75,9.55
13320,-23.15,-75.14,-87.23,-1.04,-2.27,9.59
13325,-21.40,-69.09,-79.24,-1.32,-1.10,9.88
13330,-20.52,-65.71,-72.42,-1.44,-0.61,10.14
13335,-20.23,-64.89,-70.24,-1.47,-0.53,10.20
13340,-19.84,-63.75,-67.22,-1.50,-0.45,10.28
13345,-18.96,-61.74,-60.10,-1.57,-0.45,10.44
13350,-18.08,-60.58,-53.25,-1.64,-0.58,10.52
13355,-16.16,-59.29,-39.49,-1.80,-0.90,10.61
13361,-15.08,-59.39,-33.28,-1.89,-1.09,10.58
13365,-14.19,-59.76,-28.85,-1.96,-1.21,10.53
13370,-13.79,-59.96,-27.04,-1.99,-1.26,10.51
13376,-10.83,-61.67,-18.06,-2.14,-1.46,10.25
13380,-7.60,-63.36,-10.65,-2.28,-1.62,9.91
13385,1.22,-66.72,4.44,-2.70,-1.95,8.81
13390,4.18,-67.46,8.80,-2.89,-2.09,8.29
13396,4.50,-67.43,9.17,-2.91,-2.10,8.22
13400,4.66,-67.40,9.36,-2.93,-2.11,8.18
13405,5.28,-66.98,10.68,-3.00,-2.17,7.94
13411,5.61,-66.09,12.84,-3.06,-2.29,7.64
13415,5.90,-64.10,15.46,-3.12,-2.47,7.30
13420,6.15,-61.56,18.32,-3.16,-2.66,6.97
13426,6.43,-55.75,23.22,-3.19,-3.02,6.47
13430,6.67,-52.05,25.54,-3.19,-3.18,6.24
13435,7.17,-47.17,27.95,-3.18,-3.34,6.01
13440,8.50,-35.37,32.39,-3.10,-3.59,5.68
13445,10.14,-16.08,37.82,-2.85,-3.79,5.51
13450,10.34,-9.56,39.80,-2.70,-3.87,5.50
13455,10.24,-5.90,41.15,-2.56,-3.97,5.50
13461,10.18,-5.21,41.44,-2.53,-4.00,5.50
13465,10.01,-3.94,41.97,-2.47,-4.06,5.50
13470,9.37,-0.21,43.26,-2.27,-4.24,5.52
13475,8.77,2.58,44.14,-2.07,-4.44,5.55
13480,7.95,6.53,44.80,-1.80,-4.70,5.62
13485,6.32,16.95,44.99,-1.21,-5.13,5.85
13490,6.11,18.53,44.91,-1.15,-5.16,5.88
13496,5.80,20.89,44.75,-1.06,-5.21,5.93
13500,4.97,26.24,44.25,-0.92,-5.26,6.05
13505,3.82,32.77,43.47,-0.80,-5.30,6.19
13510,3.02,36.88,42.93,-0.72,-5.32,6.27
13515,1.75,41.83,42.12,-0.64,-5.32,6.35
13520,1.40,43.13,41.88,-0.61,-5.33,6.37
13526,0.66,46.06,41.39,-0.55,-5.33,6.41
13530,-2.37,56.87,39.15,-0.04,-5.45,6.51
13535,-4.31,63.85,36.99,0.59,-6.46,6.58
13540,-6.68,70.96,29.30,1.42,-8.75,6.79
13545,-6.90,72.75,25.64,1.85,-9.30,6.90
13550,-6.88,73.52,23.77,2.07,-9.53,6.95
13555,-6.53,75.26,18.83,2.71,-9.95,7.09
13561,-2.90,78.36,7.32,5.12,-9.41,7.41
13565,0.53,79.62,2.25,6.48,-8.54,7.53
13570,6.53,81.10,-4.46,8.35,-6.96,7.61
13575,13.28,82.28,-9.76,9.66,-5.43,7.60
13580,15.68,82.79,-11.59,9.94,-4.94,7.58
13585,23.51,85.30,-17.59,10.25,-3.57,7.48
13590,42.86,98.55,-32.94,9.73,-1.06,6.96
13595,49.63,109.23,-39.03,8.42,-0.41,6.50
13600,51.48,112.78,-40.35,7.90,-0.29,6.36
13605,60.29,133.02,-42.97,5.30,-0.00,5.50
13611,62.83,141.77,-42.96,4.35,0.05,5.06
13615,64.07,146.10,-42.83,3.90,0.07,4.86
13620,72.80,167.59,-39.47,1.86,0.06,4.54
13625,91.67,189.86,-24.38,0.41,-0.15,5.62
13630,95.74,194.22,-22.06,0.23,-0.18,5.93
13635,99.63,197.79,-19.78,0.02,-0.21,6.34
13640,100.42,198.23,-19.31,-0.03,-0.21,6.46
13646,101.88,198.47,-18.47,-0.09,-0.23,6.71
13650,106.22,195.51,-16.22,-0.11,-0.26,7.52
13655,109.62,192.46,-14.61,-0.02,-0.28,8.06
13661,189.55,77.64,-0.71,1.44,-0.32,21.65
13665,191.46,71.78,-0.91,1.47,-0.31,22.10
13670,192.54,67.75,-1.06,1.48,-0.31,22.36
13675,188.09,22.93,-1.87,1.64,0.02,21.53
13680,179.79,5.81,-1.56,1.71,0.60,20.39
13685,144.50,-3.26,1.94,1.91,1.31,17.29
13690,110.63,-3.41,6.60,2.06,1.61,15.03
13695,81.67,-0.22,11.59,2.17,1.28,13.53
13700,63.92,3.63,15.23,2.24,0.56,12.76
13705,24.88,14.43,23.02,2.36,-1.36,11.09
13710,-26.25,33.50,34.86,2.43,-4.66,9.46
13715,-34.97,39.11,35.35,2.40,-5.08,9.30
13720,-33.09,42.91,27.55,2.28,-4.40,9.47
13725,-31.23,43.29,24.47,2.25,-4.10,9.54
13730,-19.99,40.80,11.32,2.16,-2.86,9.77
13735,-15.91,39.14,7.58,2.15,-2.49,9.81
13740,-14.82,38.60,6.78,2.15,-2.39,9.81
13745,-6.49,33.24,2.18,2.16,-1.77,9.76
13750,-3.56,30.90,1.60,2.18,-1.60,9.70
13755,0.23,27.52,1.16,2.23,-1.42,9.58
13760,0.72,26.97,1.23,2.24,-1.42,9.56
13765,2.21,25.04,2.25,2.30,-1.53,9.42
13770,2.16,24.96,2.47,2.31,-1.57,9.40
13776,1.75,24.81,3.66,2.34,-1.75,9.35
13780,1.18,24.89,4.49,2.35,-1.87,9.34
13785,0.80,24.98,4.85,2.36,-1.91,9.35
13790,-0.01,25.08,5.24,2.34,-1.96,9.42
13796,-0.26,25.01,5.28,2.33,-1.97,9.45
13800,-0.40,24.91,5.24,2.31,-1.98,9.48
13805,-0.58,24.50,5.02,2.27,-1.98,9.53
13810,-0.61,24.35,4.95,2.26,-1.98,9.55
13815,-0.75,23.31,4.52,2.18,-1.98,9.60
13820,-0.83,22.00,4.12,2.10,-1.99,9.64
13826,-0.84,21.51,4.00,2.08,-1.99,9.65
13830,-0.84,21.12,3.92,2.06,-1.99,9.66
13835,-0.83,20.32,3.75,2.03,-2.00,9.67
13840,-0.82,19.94,3.68,2.01,-2.00,9.67
13845,-0.81,19.54,3.61,1.99,-2.00,9.67
13850,-0.45,14.87,3.00,1.83,-2.01,9.67
13855,-0.22,13.59,2.89,1.80,-2.01,9.67
13860,0.07,12.48,2.81,1.78,-2.02,9.65
13865,0.35,11.64,2.76,1.77,-2.02,9.64
13870,0.74,10.63,2.72,1.77,-2.02,9.62
13875,1.45,9.02,2.66,1.77,-2.02,9.57
13880,1.63,8.65,2.65,1.77,-2.02,9.55
13885,1.79,8.35,2.63,1.78,-2.02,9.48
13890,1.87,8.19,2.62,1.78,-2.02,9.40
13895,2.43,7.11,2.52,1.81,-2.00,8.05
13900,2.75,6.60,2.40,1.86,-1.99,5.73
13905,2.97,6.24,2.21,1.92,-1.98,2.47
13910,3.00,6.17,2.15,1.94,-1.98,1.44
13915,3.00,6.13,2.09,1.95,-1.98,0.75
13920,3.00,6.09,2.04,1.95,-1.97,0.47
13925,2.99,6.05,1.99,1.94,-1.97,0.74
13930,2.92,5.87,1.90,1.87,-1.94,4.43
13935,2.85,5.76,1.87,1.84,-1.94,5.67
13940,2.78,5.68,1.89,1.81,-1.93,6.92
13945,2.76,5.66,1.88,1.81,-1.93,7.12
13950,2.71,5.58,1.86,1.79,-1.92,7.83
13955,2.15,4.88,1.70,1.74,-1.91,9.60
13960,2.00,4.69,1.65,1.73,-1.91,9.82
13965,1.82,4.46,1.59,1.72,-1.91,10.00
13970,1.77,4.40,1.57,1.72,-1.91,10.04
13976,1.64,4.22,1.52,1.72,-1.91,10.19
13980,1.29,3.76,1.37,1.71,-1.91,10.30
13985,1.19,3.63,1.33,1.70,-1.91,10.25
13990,1.06,3.46,1.28,1.70,-1.91,10.17
13995,0.22,2.24,0.86,1.69,-1.91,9.86
14000,0.14,2.00,0.75,1.69,-1.91,9.77
14005,0.05,1.93,0.71,1.69,-1.91,9.73
14011,-0.06,2.10,0.79,1.69,-1.91,9.74
14015,-0.08,2.11,0.80,1.70,-1.91,9.74
14020,-0.08,2.06,0.78,1.70,-1.91,9.71
14025,0.03,1.24,0.34,1.71,-1.92,9.44
14030,0.05,1.22,0.32,1.72,-1.92,9.44
14035,0.06,1.21,0.31,1.72,-1.93,9.44
14040,0.13,1.07,0.20,1.74,-1.93,9.43
14046,0.15,1.04,0.18,1.74,-1.94,9.42
14050,0.17,0.97,0.15,1.75,-1.94,9.42
14055,0.18,0.77,0.12,1.76,-1.94,9.42
14062,-0.12,0.17,-0.05,1.73,-1.93,9.43
14065,-0.14,0.15,-0.06,1.72,-1.93,9.43
14070,-0.18,0.11,-0.08,1.72,-1.93,9.43
14076,-0.69,-0.34,-0.46,1.62,-1.92,9.46
14081,-0.69,-0.35,-0.46,1.61,-1.92,9.46
14085,-0.69,-0.35,-0.45,1.61,-1.91,9.46
14090,-0.68,-0.36,-0.45,1.60,-1.91,9.46
14096,-0.67,-0.45,-0.42,1.57,-1.92,9.46
14100,-0.67,-0.50,-0.40,1.55,-1.92,9.46
14105,-0.58,-0.66,-0.24,1.52,-1.93,9.40
14111,-0.55,-0.67,-0.20,1.52,-1.93,9.38
14115,-0.52,-0.68,-0.17,1.52,-1.93,9.37
14120,-0.51,-0.68,-0.15,1.52,-1.92,9.36
14126,-0.48,-0.71,-0.11,1.52,-1.92,9.35
14130,-0.44,-1.01,0.07,1.55,-1.91,9.35
14135,-0.44,-1.06,0.08,1.55,-1.91,9.36
14140,-0.44,-1.22,0.07,1.56,-1.91,9.38
14146,-0.43,-1.32,0.07,1.57,-1.91,9.39
14150,-0.42,-1.36,0.06,1.57,-1.91,9.40
14155,-0.41,-1.40,0.06,1.57,-1.91,9.40
14160,-0.21,-1.81,-0.06,1.61,-1.91,9.44
14165,-0.17,-1.85,-0.09,1.62,-1.91,9.44
14170,-0.13,-1.87,-0.12,1.64,-1.92,9.44
14176,-0.11,-1.86,-0.12,1.64,-1.93,9.44
14180,-0.11,-1.86,-0.13,1.64,-1.93,9.44
14185,-0.12,-1.85,-0.25,1.61,-1.92,9.47
14190,-0.15,-1.91,-0.39,1.61,-1.90,9.49
14195,-0.18,-1.96,-0.50,1.62,-1.89,9.51
14200,-0.20,-2.00,-0.57,1.63,-1.89,9.51
14205,-0.29,-2.11,-0.73,1.65,-1.88,9.52
14211,-0.59,-2.25,-0.95,1.71,-1.89,9.52
14215,-0.80,-2.23,-1.01,1.73,-1.89,9.47
14220,-0.90,-2.19,-1.04,1.74,-1.90,9.44
14225,-0.97,-2.13,-1.04,1.74,-1.90,9.40
14230,-0.98,-2.11,-1.04,1.74,-1.90,9.39
14235,-1.04,-2.01,-1.02,1.74,-1.90,9.36
14240,-1.10,-1.65,-0.92,1.73,-1.93,9.26
14245,-1.10,-1.61,-0.91,1.73,-1.93,9.25
14250,-1.08,-1.53,-0.88,1.73,-1.94,9.24
14255,-1.08,-1.51,-0.86,1.73,-1.94,9.23
14261,-1.07,-1.45,-0.84,1.73,-1.94,9.22
14265,-1.04,-1.35,-0.80,1.73,-1.95,9.21
14270,-0.99,-1.23,-0.76,1.73,-1.96,9.20
14275,-0.92,-1.06,-0.72,1.72,-1.96,9.20
14280,-0.89,-1.00,-0.71,1.72,-1.97,9.19
14285,-0.87,-0.95,-0.70,1.72,-1.97,9.19
14290,-0.70,-0.63,-0.60,1.72,-1.99,9.21
14296,-0.66,-0.59,-0.57,1.72,-2.00,9.22
14300,-0.60,-0.54,-0.51,1.73,-2.00,9.23
14305,-0.57,-0.52,-0.48,1.73,-2.00,9.24
14310,-0.49,-0.48,-0.39,1.72,-2.01,9.27
14315,-0.48,-0.48,-0.38,1.72,-2.01,9.27
14320,-0.45,-0.47,-0.36,1.72,-2.01,9.28
14326,-0.37,-0.44,-0.29,1.70,-2.01,9.30
14330,-0.33,-0.44,-0.25,1.70,-2.01,9.31
14335,-0.30,-0.43,-0.21,1.69,-2.01,9.31
14340,-0.25,-0.43,-0.14,1.69,-2.01,9.32
14345,-0.01,-0.50,0.08,1.66,-1.95,9.38
14350,-0.01,-0.50,0.08,1.66,-1.95,9.39
14355,-0.00,-0.50,0.07,1.66,-1.95,9.39
14361,0.01,-0.50,0.07,1.65,-1.94,9.39
14365,0.12,-0.55,0.15,1.61,-1.94,9.41
14370,0.15,-0.57,0.19,1.60,-1.94,9.41
14377,0.18,-0.59,0.26,1.58,-1.94,9.41
14381,0.22,-0.61,0.35,1.56,-1.94,9.42
14385,0.28,-0.61,0.48,1.53,-1.95,9.45
14390,0.30,-0.59,0.52,1.54,-1.95,9.47
14396,0.31,-0.59,0.52,1.55,-1.95,9.47
14400,0.31,-0.59,0.52,1.56,-1.95,9.48
14405,0.32,-0.59,0.52,1.58,-1.95,9.50
14411,0.32,-0.59,0.52,1.59,-1.94,9.50
14415,0.33,-0.58,0.51,1.60,-1.93,9.50
14420,0.33,-0.56,0.51,1.60,-1.93,9.50
14426,0.34,-0.53,0.51,1.60,-1.93,9.50
14430,0.33,-0.49,0.52,1.60,-1.93,9.49
14435,0.31,-0.48,0.52,1.59,-1.92,9.47
14440,0.30,-0.48,0.52,1.59,-1.92,9.47
14445,0.26,-0.51,0.51,1.57,-1.92,9.46
14450,0.23,-0.53,0.50,1.55,-1.91,9.45
14455,0.22,-0.54,0.48,1.54,-1.91,9.45
14461,0.21,-0.55,0.46,1.53,-1.91,9.44
14465,0.18,-0.58,0.34,1.47,-1.90,9.45
14470,0.17,-0.59,0.32,1.46,-1.90,9.45
14475,0.14,-0.61,0.27,1.44,-1.89,9.48
14480,0.12,-0.63,0.26,1.43,-1.90,9.49
14485,0.02,-0.73,0.22,1.43,-1.90,9.53
14490,-0.03,-0.80,0.19,1.42,-1.90,9.54
14495,-0.09,-0.89,0.16,1.42,-1.90,9.55
14500,-0.12,-0.94,0.14,1.42,-1.90,9.54
14505,-0.22,-1.16,-0.00,1.44,-1.91,9.46
14510,-0.27,-1.30,-0.13,1.48,-1.92,9.37
14515,-0.28,-1.34,-0.19,1.50,-1.92,9.33
14520,-0.27,-1.40,-0.27,1.53,-1.92,9.28
14525,-0.24,-1.47,-0.38,1.58,-1.93,9.23
14530,-0.19,-1.51,-0.44,1.61,-1.93,9.21
14535,-0.12,-1.53,-0.48,1.62,-1.93,9.21
14540,-0.00,-1.59,-0.54,1.62,-1.92,9.23
14545,0.09,-1.64,-0.58,1.60,-1.92,9.26
14550,0.28,-1.78,-0.66,1.54,-1.92,9.33
14555,0.32,-1.81,-0.67,1.53,-1.92,9.35
14560,0.41,-1.87,-0.69,1.51,-1.93,9.38
14565,0.69,-2.05,-0.70,1.46,-1.93,9.46
14570,0.80,-2.10,-0.70,1.46,-1.93,9.47
14576,0.92,-2.13,-0.71,1.45,-1.93,9.47
14580,1.07,-2.13,-0.72,1.46,-1.93,9.47
14585,1.41,-1.98,-0.72,1.50,-1.91,9.47
14590,1.45,-1.94,-0.71,1.52,-1.90,9.48
14595,1.47,-1.88,-0.72,1.56,-1.90,9.49
14600,1.47,-1.87,-0.73,1.57,-1.90,9.49
14605,1.46,-1.85,-0.75,1.57,-1.90,9.50
14610,1.40,-1.68,-0.89,1.59,-1.90,9.50
14615,1.39,-1.60,-0.93,1.59,-1.90,9.51
14620,1.35,-1.29,-1.03,1.59,-1.90,9.51
14625,1.34,-1.23,-1.05,1.59,-1.90,9.51
14630,1.33,-1.14,-1.07,1.59,-1.90,9.51
14635,1.32,-0.96,-1.10,1.58,-1.90,9.51
14641,1.31,-0.83,-1.12,1.58,-1.90,9.51
14646,1.30,-0.75,-1.13,1.57,-1.90,9.51
14650,1.28,-0.53,-1.16,1.56,-1.90,9.51
14655,1.27,-0.47,-1.16,1.55,-1.90,9.51
14661,1.24,-0.23,-1.18,1.53,-1.90,9.51
14665,1.16,0.06,-1.20,1.51,-1.90,9.50
14670,1.10,0.32,-1.20,1.51,-1.91,9.49
14677,1.09,0.51,-1.19,1.53,-1.91,9.48
14681,1.10,0.60,-1.19,1.54,-1.91,9.47
14685,1.16,0.67,-1.20,1.55,-1.92,9.47
14691,1.17,0.68,-1.21,1.55,-1.92,9.47
14695,1.18,0.69,-1.21,1.55,-1.92,9.47
14700,1.30,0.72,-1.27,1.56,-1.92,9.48
14705,1.36,0.72,-1.28,1.56,-1.93,9.49
14710,1.37,0.71,-1.27,1.55,-1.93,9.50
14715,1.34,0.69,-1.05,1.50,-1.95,9.52
14720,1.64,0.75,-0.57,1.31,-1.97,9.57
14726,1.73,0.77,-0.54,1.30,-1.96,9.57
14730,1.97,0.81,-0.52,1.27,-1.92,9.55
14735,2.09,0.83,-0.52,1.27,-1.90,9.53
14740,2.21,0.83,-0.51,1.27,-1.87,9.51
14745,2.32,0.84,-0.51,1.31,-1.84,9.47
14750,2.34,0.84,-0.51,1.36,-1.82,9.45
14755,2.28,0.84,-0.48,1.49,-1.81,9.42
14761,2.24,0.84,-0.47,1.55,-1.81,9.41
14765,2.10,0.85,-0.44,1.66,-1.83,9.40
14770,2.06,0.85,-0.43,1.69,-1.83,9.40
14776,1.87,0.87,-0.41,1.78,-1.86,9.40
14780,1.81,0.87,-0.40,1.81,-1.87,9.40
14785,1.59,0.90,-0.39,1.89,-1.90,9.41
14790,1.37,0.93,-0.37,1.96,-1.93,9.41
14796,1.19,0.95,-0.35,2.01,-1.95,9.42
14800,1.03,0.98,-0.31,2.06,-1.96,9.44
14805,0.98,0.99,-0.30,2.07,-1.96,9.45
14811,0.83,1.01,-0.16,2.13,-1.95,9.52
14815,0.81,1.02,-0.11,2.13,-1.94,9.53
14820,0.69,0.92,0.25,2.16,-1.91,9.59
14826,0.53,0.83,0.48,2.16,-1.89,9.59
14830,0.35,0.74,0.65,2.17,-1.88,9.59
14835,0.06,0.61,0.89,2.17,-1.88,9.58
14840,-0.03,0.57,0.95,2.17,-1.88,9.57
14845,-0.15,0.51,1.05,2.17,-1.88,9.57
14850,-0.65,0.29,1.37,2.16,-1.89,9.55
14855,-0.89,0.18,1.48,2.15,-1.90,9.54
14861,-1.03,0.10,1.55,2.15,-1.91,9.53
14866,-1.38,-0.05,1.64,2.16,-1.95,9.53
14870,-1.52,-0.11,1.66,2.17,-1.97,9.53
14875,-1.75,-0.15,1.68,2.26,-1.98,9.51
14880,-1.76,-0.15,1.69,2.26,-1.97,9.51
14885,-1.76,-0.15,1.70,2.26,-1.97,9.51
14890,-1.77,-0.15,1.71,2.26,-1.97,9.51
14895,-1.77,-0.14,1.84,2.27,-1.93,9.49
14900,-1.76,-0.13,1.89,2.26,-1.92,9.49
14905,-1.75,-0.12,1.99,2.25,-1.91,9.48
14910,-1.71,-0.08,2.19,2.20,-1.89,9.48
14915,-1.64,0.06,2.43,2.09,-1.87,9.50
14920,-1.63,0.09,2.46,2.07,-1.87,9.51
14925,-1.62,0.16,2.51,2.04,-1.88,9.54
14930,-1.62,0.29,2.61,1.97,-1.89,9.60
14935,-1.64,0.36,2.71,1.95,-1.89,9.62
14940,-1.67,0.38,2.77,1.95,-1.89,9.62
14945,-1.72,0.44,2.89,1.94,-1.89,9.63
14950,-1.87,0.54,3.22,1.93,-1.90,9.61
14955,-2.19,0.71,3.80,1.95,-1.90,9.51
14960,-2.27,0.74,3.87,1.96,-1.90,9.48
14965,-2.29,0.75,3.91,1.97,-1.90,9.46
14970,-2.31,0.75,3.96,1.99,-1.90,9.44
14976,-2.40,0.79,4.03,2.00,-1.90,9.40
14980,-3.01,1.20,4.10,2.08,-1.93,9.30
14985,-3.12,1.32,3.99,2.07,-1.93,9.29
14990,-4.53,2.97,3.27,1.99,-1.98,9.25
14995,-4.71,3.17,3.18,1.98,-1.98,9.25
15000,-4.98,3.45,3.06,1.95,-1.98,9.26
15005,-5.10,3.58,3.01,1.94,-1.99,9.26
15010,-5.31,3.81,2.93,1.92,-1.99,9.27
15015,-5.52,4.02,2.86,1.91,-2.00,9.28
15020,-5.95,4.38,2.77,1.86,-2.02,9.29
15025,-6.96,5.29,2.65,1.76,-2.09,9.32
15030,-7.15,5.47,2.67,1.74,-2.12,9.33
15035,-7.46,5.94,2.80,1.70,-2.17,9.33
15040,-7.73,6.71,3.11,1.66,-2.23,9.33
15046,-7.78,6.94,3.21,1.66,-2.24,9.33
15050,-7.79,7.11,3.32,1.65,-2.24,9.33
15055,-7.81,7.29,3.42,1.64,-2.23,9.33
15061,-7.84,7.47,3.47,1.63,-2.21,9.34
15065,-8.04,7.94,3.49,1.62,-2.16,9.33
15070,-8.51,8.88,3.17,1.63,-2.08,9.29
15077,-8.74,9.20,3.05,1.64,-2.06,9.28
15081,-9.02,9.53,2.90,1.65,-2.04,9.26
15085,-9.78,9.92,2.70,1.66,-2.03,9.24
15091,-10.05,10.01,2.65,1.66,-2.02,9.24
15095,-10.62,10.16,2.54,1.66,-2.02,9.23
15100,-11.48,10.39,2.35,1.66,-2.02,9.22
15105,-11.63,10.49,2.30,1.66,-2.03,9.22
15111,-11.73,10.59,2.25,1.66,-2.04,9.21
15115,-11.90,10.88,2.20,1.66,-2.08,9.20
15120,-11.93,11.00,2.21,1.65,-2.11,9.18
15126,-12.08,11.22,2.28,1.65,-2.17,9.13
15130,-12.36,11.39,2.47,1.64,-2.22,9.06
15135,-13.14,11.67,2.96,1.63,-2.28,8.51
15140,-13.78,11.82,3.34,1.61,-2.29,7.23
15145,-14.23,11.92,3.58,1.59,-2.29,5.44
15150,-14.55,12.03,3.84,1.56,-2.30,3.35
15155,-14.84,12.31,4.44,1.50,-2.32,0.57
15161,-14.88,12.41,4.65,1.49,-2.33,0.55
15165,-14.89,12.46,4.74,1.48,-2.33,0.58
15170,-14.94,12.59,4.98,1.47,-2.33,0.72
15176,-15.30,13.76,6.75,1.39,-2.34,3.23
15180,-15.72,15.40,8.74,1.32,-2.36,5.75
15185,-15.81,15.81,9.17,1.31,-2.37,6.28
15191,-16.01,16.72,10.16,1.28,-2.38,7.39
15195,-16.28,17.78,11.34,1.25,-2.40,8.46
15200,-17.58,25.27,15.89,1.29,-2.50,9.86
15205,-17.69,26.14,16.08,1.31,-2.50,9.76
15210,-17.77,26.68,16.16,1.32,-2.50,9.72
15215,-17.81,26.99,16.21,1.33,-2.49,9.69
15220,-17.98,27.96,16.35,1.34,-2.48,9.60
15226,-18.22,29.53,16.59,1.34,-2.45,9.51
15230,-18.98,35.12,17.87,1.19,-2.33,9.52
15235,-19.12,35.64,18.11,1.17,-2.32,9.53
15240,-19.24,35.98,18.32,1.15,-2.32,9.52
15245,-19.32,36.15,18.45,1.15,-2.32,9.52
15250,-19.75,36.93,19.07,1.12,-2.35,9.50
15255,-20.01,37.40,19.42,1.12,-2.38,9.47
15261,-20.21,37.78,19.68,1.12,-2.42,9.45
15265,-20.44,38.52,19.98,1.12,-2.49,9.43
15270,-20.40,39.25,20.14,1.13,-2.54,9.41
15275,-17.96,43.60,20.38,1.16,-2.66,9.39
15280,-17.32,44.37,20.30,1.16,-2.65,9.39
15285,-16.08,46.24,20.07,1.16,-2.60,9.40
15291,-15.48,48.48,19.93,1.17,-2.49,9.42
15295,-15.47,49.93,20.12,1.18,-2.44,9.44
15300,-16.07,52.80,21.57,1.19,-2.38,9.47
15305,-17.70,57.41,24.84,1.20,-2.31,9.53
15310,-19.45,61.57,28.30,1.21,-2.28,9.60
15315,-21.64,66.38,32.59,1.22,-2.23,9.69
15320,-24.54,72.13,38.19,1.23,-2.19,9.82
15327,-25.97,74.84,40.96,1.23,-2.16,9.88
15331,-27.74,78.18,44.40,1.24,-2.11,9.97
15335,-31.00,82.33,50.78,1.23,-1.86,10.09
15340,-31.91,83.23,53.02,1.21,-1.82,10.09
15345,-32.08,83.40,53.50,1.20,-1.82,10.09
15350,-32.26,83.57,54.03,1.20,-1.81,10.10
15355,-32.69,84.00,55.41,1.17,-1.79,10.09
15361,-32.93,84.23,56.22,1.15,-1.78,10.09
15365,-33.50,84.77,58.16,1.10,-1.77,10.08
15370,-34.14,85.35,60.23,1.05,-1.75,10.07
15376,-34.78,85.91,62.13,1.00,-1.74,10.06
15381,-37.07,88.11,68.81,0.82,-1.71,10.02
15385,-38.51,89.79,73.47,0.70,-1.69,9.99
15390,-42.28,94.67,86.12,0.39,-1.67,9.89
15396,-48.14,104.40,106.23,-0.12,-1.66,9.66
15400,-50.71,110.03,115.44,-0.36,-1.68,9.50
15405,-54.63,119.57,128.89,-0.72,-1.75,9.22
15411,-56.04,125.96,135.28,-0.87,-1.85,9.06
15416,-56.05,128.37,137.03,-0.90,-1.90,9.01
15420,-55.90,129.93,137.92,-0.91,-1.94,8.99
15427,-54.98,134.49,139.39,-0.91,-2.06,8.94
15430,-53.40,138.76,139.74,-0.88,-2.19,8.96
15436,-52.63,139.82,139.72,-0.86,-2.24,8.98
15441,-48.48,143.44,138.96,-0.71,-2.41,9.08
15446,-38.73,146.27,134.64,-0.18,-2.51,9.35
15450,-17.43,141.07,121.02,1.56,-2.18,9.91
15455,-11.68,134.56,116.15,2.27,-1.91,10.03
15461,-9.02,129.95,113.73,2.62,-1.76,10.08
15465,-5.22,122.03,110.08,3.13,-1.52,10.15
15470,1.07,103.33,103.00,4.01,-1.10,10.24
15477,9.76,38.83,87.86,5.54,-0.21,10.35
15481,10.80,19.09,84.91,5.73,0.02,10.36
15485,11.67,-3.22,81.66,5.84,0.19,10.29
15490,11.92,-16.53,79.90,5.81,0.19,10.21
15495,12.06,-47.01,76.50,5.58,0.01,10.00
15500,12.10,-84.49,73.17,5.26,-0.48,9.60
15505,12.18,-100.33,71.02,5.03,-0.93,9.32
15511,12.38,-107.91,70.34,4.88,-1.47,9.14
15515,15.09,-124.11,63.84,4.20,-5.95,8.44
15520,15.48,-123.42,61.56,4.15,-6.39,8.42
15525,15.76,-121.98,58.25,4.09,-6.82,8.40
15530,15.75,-121.66,55.15,4.03,-6.98,8.39
15535,14.50,-121.33,36.41,3.66,-7.55,8.25
15541,13.85,-121.51,32.54,3.57,-7.61,8.18
15546,12.98,-121.74,28.07,3.45,-7.67,8.10
15550,12.42,-121.86,25.52,3.39,-7.70,8.06
15555,10.09,-122.18,17.93,3.18,-7.76,7.91
15560,8.52,-122.32,14.57,3.07,-7.79,7.83
15565,5.91,-122.39,9.60,2.93,-7.81,7.72
15570,-0.22,-122.09,-0.11,2.67,-7.82,7.55
15576,-2.06,-121.93,-2.35,2.61,-7.82,7.51
15580,-11.22,-120.49,-16.32,2.38,-7.78,7.37
15585,-20.80,-117.25,-42.71,2.19,-7.59,7.46
15590,-21.47,-116.92,-45.65,2.18,-7.56,7.49
15595,-22.44,-116.44,-50.09,2.15,-7.52,7.55
15600,-24.02,-115.72,-57.19,2.10,-7.46,7.69
15605,-26.50,-114.55,-69.24,1.98,-7.36,8.06
15611,-26.86,-114.40,-70.83,1.97,-7.35,8.12
15615,-28.90,-113.73,-78.49,1.88,-7.30,8.40
15620,-32.20,-113.04,-87.54,1.74,-7.27,8.84
15625,-34.45,-112.61,-93.10,1.63,-7.25,9.09
15630,-36.51,-112.16,-97.75,1.52,-7.22,9.26
15635,-37.62,-111.94,-99.09,1.46,-7.20,9.39
15641,-37.98,-111.90,-98.73,1.43,-7.19,9.46
15646,-38.43,-111.90,-98.36,1.38,-7.18,9.51
15650,-39.04,-111.88,-99.49,1.31,-7.16,9.53
15655,-39.57,-111.83,-100.89,1.26,-7.15,9.55
15660,-44.08,-111.04,-109.83,0.45,-6.45,9.51
15665,-39.97,-93.57,-125.08,-0.39,-3.60,8.16
15670,-38.37,-86.99,-128.19,-0.39,-3.23,7.83
15675,-36.75,-78.15,-129.18,-0.30,-2.86,7.69
15681,-36.34,-75.29,-128.86,-0.24,-2.77,7.76
15685,-35.42,-72.51,-127.63,-0.11,-2.77,8.05
15690,-32.76,-70.48,-124.26,0.20,-3.12,9.07
15695,-26.30,-74.56,-122.13,0.53,-4.10,9.97
15700,-21.23,-81.56,-121.62,0.73,-4.90,10.28
15705,-20.52,-83.16,-121.57,0.75,-5.03,10.31
15710,-20.00,-84.47,-121.55,0.77,-5.12,10.32
15715,-19.43,-86.16,-121.53,0.79,-5.23,10.33
15720,-19.00,-89.49,-121.37,0.81,-5.33,10.33
15727,-19.08,-91.13,-121.17,0.81,-5.35,10.32
15731,-22.13,-95.88,-119.02,0.76,-5.24,10.30
15735,-22.92,-96.72,-118.03,0.74,-5.26,10.27
15741,-23.32,-97.20,-117.42,0.72,-5.27,10.25
15746,-24.64,-100.12,-113.10,0.56,-5.32,10.04
15750,-24.78,-101.45,-110.65,0.44,-5.29,9.92
15756,-24.79,-101.61,-110.30,0.42,-5.29,9.91
15763,-24.78,-101.93,-109.45,0.38,-5.28,9.88
15766,-24.72,-102.87,-106.16,0.24,-5.25,9.81
15770,-24.72,-103.01,-104.21,0.20,-5.22,9.80
15776,-24.74,-103.05,-101.16,0.15,-5.16,9.80
15780,-24.75,-103.04,-98.44,0.09,-5.09,9.79
15785,-24.76,-102.96,-97.68,0.08,-5.07,9.80
15792,-24.76,-102.68,-96.39,0.06,-5.03,9.80
15796,-24.68,-100.60,-87.13,-0.28,-4.59,9.80
15800,-24.66,-100.07,-85.73,-0.36,-4.47,9.79
15805,-24.64,-99.60,-84.59,-0.44,-4.37,9.79
15811,-24.63,-99.18,-83.63,-0.50,-4.27,9.78
15815,-24.59,-97.88,-80.73,-0.70,-3.98,9.74
15820,-24.55,-97.15,-79.07,-0.79,-3.84,9.72
15826,-24.47,-96.13,-76.88,-0.91,-3.66,9.68
15830,-24.42,-95.59,-75.70,-0.97,-3.57,9.66
15835,-24.29,-94.14,-72.45,-1.12,-3.35,9.59
15840,-23.09,-89.96,-61.00,-1.44,-2.82,9.40
15845,-19.14,-83.89,-43.98,-1.76,-2.27,9.16
15850,-6.63,-73.24,-22.51,-2.10,-1.94,8.56
15855,-4.56,-71.42,-20.26,-2.15,-1.97,8.42
15861,-3.34,-69.99,-18.81,-2.18,-2.01,8.32
15865,-1.06,-66.93,-16.08,-2.25,-2.09,8.12
15870,1.15,-63.12,-12.64,-2.33,-2.20,7.90
15876,1.97,-61.12,-10.78,-2.35,-2.25,7.82
15880,2.24,-60.20,-9.94,-2.37,-2.28,7.79
15885,2.60,-58.63,-8.50,-2.38,-2.32,7.74
15891,3.73,-54.89,-4.85,-2.43,-2.43,7.60
15895,4.92,-51.55,-1.13,-2.46,-2.52,7.48
15900,7.66,-42.48,11.22,-2.51,-2.76,7.17
15905,8.54,-39.97,15.38,-2.52,-2.87,7.01
15911,9.08,-37.33,19.64,-2.51,-3.14,6.62
15915,9.05,-35.89,21.23,-2.49,-3.39,6.28
15920,7.82,-31.96,22.37,-2.39,-3.89,5.67
15925,7.37,-30.42,22.43,-2.35,-3.98,5.58
15930,6.00,-24.48,22.55,-2.22,-4.17,5.44
15935,4.81,-18.03,22.87,-2.12,-4.24,5.46
15942,4.22,-14.99,23.08,-2.08,-4.27,5.49
15945,3.19,-9.95,23.53,-1.99,-4.31,5.57
15950,0.41,1.48,24.75,-1.75,-4.42,5.73
15955,-0.43,4.12,25.06,-1.67,-4.45,5.76
15960,-2.01,9.24,25.58,-1.53,-4.52,5.83
15965,-3.28,13.00,25.87,-1.42,-4.56,5.87
15970,-5.18,18.43,26.23,-1.25,-4.63,5.92
15976,-5.83,20.40,26.33,-1.18,-4.65,5.95
15980,-6.19,21.50,26.39,-1.14,-4.66,5.97
15985,-6.80,23.41,26.44,-1.08,-4.68,5.99
15990,-8.02,27.06,26.31,-0.93,-4.66,6.05
15995,-9.56,31.49,26.07,-0.70,-4.62,6.18
16000,-10.73,35.15,25.88,-0.53,-4.57,6.29
16005,-11.08,36.27,25.83,-0.48,-4.56,6.33
16011,-12.95,43.55,25.58,-0.21,-4.47,6.56
16015,-14.60,53.24,25.16,0.11,-4.41,6.81
16020,-14.87,55.53,24.53,0.19,-4.40,6.86
16025,-15.09,57.58,23.65,0.26,-4.40,6.91
16030,-15.22,58.94,22.92,0.31,-4.40,6.94
16035,-15.47,61.78,21.08,0.45,-4.39,7.01
16040,-15.80,66.03,16.24,0.72,-4.40,7.12
16046,-15.93,67.76,13.34,0.87,-4.40,7.17
16050,-16.03,69.64,8.46,1.14,-4.35,7.22
16055,-14.47,73.44,-13.17,2.41,-2.68,7.41
16060,-13.81,73.83,-16.65,2.62,-2.24,7.46
16065,-12.24,74.55,-21.96,2.93,-1.47,7.59
16070,-4.29,76.49,-32.25,3.54,0.65,8.22
16075,-0.26,77.31,-35.39,3.71,1.43,8.53
16080,5.91,78.84,-38.84,3.89,2.35,8.99
16085,12.42,81.00,-40.26,4.04,3.12,9.44
16091,18.89,83.62,-39.63,4.12,3.64,9.86
16095,22.96,85.42,-38.62,4.13,3.88,10.13
16100,53.29,109.20,-20.97,3.92,4.29,11.93
16105,58.50,118.35,-13.97,3.68,3.83,12.44
16110,59.47,120.11,-12.51,3.62,3.63,12.49
16115,63.10,124.77,-7.67,3.38,2.78,12.45
16120,66.17,126.39,-4.67,3.19,2.14,12.20
16126,74.98,127.50,1.91,2.46,-0.02,10.40
16130,86.45,119.04,0.82,2.57,-0.94,7.58
16135,88.40,117.33,0.22,2.63,-1.03,7.11
16142,96.95,110.93,-2.67,2.98,-1.24,5.32
16146,123.72,96.59,-13.11,4.41,-1.35,1.36
16150,130.42,92.86,-16.24,4.84,-1.27,0.68
16155,136.03,90.01,-18.84,5.19,-0.77,0.07
16161,140.03,89.61,-20.76,5.45,-0.09,-0.26
16165,147.35,91.98,-24.41,5.94,1.26,-0.59
16170,155.64,97.69,-28.99,6.56,7.06,-0.76
16175,155.87,102.92,-29.09,6.45,10.28,0.26
16180,152.62,100.95,-26.19,5.21,12.88,5.05
16185,128.32,80.35,-15.50,3.89,10.01,9.63
16191,85.25,62.46,1.01,3.22,4.16,11.05
16195,23.75,46.38,23.80,2.70,-3.24,11.19
16200,-28.46,38.50,41.95,2.44,-8.69,10.42
16205,-32.16,38.26,42.83,2.42,-8.89,10.30
16211,-38.20,38.01,43.36,2.40,-8.85,9.87
16215,-37.63,38.15,42.76,2.40,-8.63,9.78
16220,-30.26,39.73,37.72,2.44,-6.95,9.51
16226,-24.98,40.37,34.15,2.46,-5.93,9.38
16230,-11.16,40.09,24.65,2.52,-3.68,9.08
16235,-5.62,39.25,19.57,2.54,-2.81,8.99
16240,-0.63,35.64,13.26,2.51,-1.98,9.09
16245,-0.11,34.71,12.12,2.49,-1.84,9.12
16250,0.18,34.07,11.43,2.47,-1.76,9.15
16255,0.96,31.44,9.03,2.42,-1.46,9.23
16260,0.09,24.46,5.68,2.28,-1.04,9.36
16265,-0.05,23.97,5.44,2.27,-1.03,9.36
16270,-0.41,22.99,4.90,2.26,-1.05,9.37
16275,-1.16,20.58,3.79,2.24,-1.19,9.36
16280,-1.52,19.46,3.30,2.24,-1.29,9.35
16285,-2.30,16.98,2.37,2.23,-1.52,9.33
16291,-3.53,12.69,1.29,2.22,-2.03,9.30
16295,-3.59,12.40,1.23,2.22,-2.06,9.30
16300,-3.66,12.01,1.16,2.22,-2.11,9.30
16305,-3.67,11.89,1.14,2.21,-2.13,9.30
16311,-3.69,11.31,1.09,2.21,-2.18,9.30
16315,-3.67,11.14,1.08,2.20,-2.20,9.30
16320,-3.40,10.46,1.07,2.18,-2.24,9.31
16325,-3.13,10.01,1.08,2.16,-2.26,9.32
16330,-2.95,9.79,1.09,2.15,-2.26,9.32
16335,-2.42,9.43,1.15,2.14,-2.25,9.32
16341,1.86,7.62,1.73,2.10,-2.10,9.31
16345,2.20,7.46,1.79,2.10,-2.07,9.31
16350,2.29,7.41,1.81,2.10,-2.06,9.31
16355,2.35,7.38,1.82,2.10,-2.05,9.31
16360,2.74,7.13,1.90,2.11,-2.00,9.31
16365,2.92,6.91,1.93,2.12,-1.97,9.34
16370,3.01,6.69,1.91,2.13,-1.94,9.40
16375,3.00,6.61,1.86,2.12,-1.93,9.44
16380,2.75,6.31,1.59,2.00,-1.92,9.51
16385,2.62,6.23,1.52,1.97,-1.92,9.52
16390,2.47,6.14,1.45,1.94,-1.92,9.53
16395,2.30,6.04,1.38,1.90,-1.92,9.53
16400,2.08,5.89,1.30,1.87,-1.92,9.53
16405,1.71,5.63,1.17,1.84,-1.92,9.53
16410,1.34,5.32,1.04,1.81,-1.92,9.53
16415,0.94,4.86,0.86,1.78,-1.92,9.52
16420,0.76,4.57,0.76,1.77,-1.93,9.52
16425,0.49,4.01,0.56,1.73,-1.96,9.51
16430,0.25,3.27,0.30,1.66,-2.02,9.48
16435,0.21,3.07,0.24,1.65,-2.03,9.46
16440,0.17,2.10,0.09,1.65,-2.06,9.41
16445,0.22,1.96,0.09,1.67,-2.06,9.41
16450,0.41,1.77,0.13,1.72,-2.04,9.40
16455,0.50,1.71,0.16,1.74,-2.04,9.40
16460,0.70,1.61,0.24,1.76,-2.03,9.40
16465,0.82,1.55,0.30,1.77,-2.02,9.40
16470,1.02,1.45,0.41,1.77,-2.01,9.41
16476,1.10,1.41,0.46,1.77,-2.00,9.41
16480,1.24,1.33,0.54,1.76,-1.99,9.41
16485,1.54,1.12,0.74,1.72,-1.95,9.43
16491,1.62,1.05,0.80,1.70,-1.94,9.45
16495,1.65,1.01,0.82,1.69,-1.93,9.46
16500,1.68,0.93,0.85,1.66,-1.92,9.49
16505,1.49,0.67,0.84,1.62,-1.93,9.58
16511,1.32,0.54,0.81,1.61,-1.93,9.61
16515,1.09,0.34,0.73,1.60,-1.94,9.62
16520,0.78,-0.01,0.56,1.60,-1.95,9.62
16525,0.74,-0.07,0.52,1.60,-1.96,9.62
16530,0.72,-0.09,0.50,1.60,-1.96,9.62
16535,0.64,-0.18,0.44,1.60,-1.96,9.62
16541,0.33,-0.61,0.17,1.60,-2.00,9.69
16545,0.23,-0.81,0.10,1.60,-2.02,9.71
16550,0.19,-0.89,0.08,1.60,-2.02,9.70
16555,0.14,-1.04,0.05,1.59,-2.02,9.69
16560,0.13,-1.08,0.04,1.59,-2.02,9.67
16565,0.12,-1.10,0.04,1.59,-2.02,9.66
16570,0.13,-1.11,0.04,1.60,-2.02,9.64
16576,0.13,-1.11,0.04,1.60,-2.02,9.63
16580,0.14,-1.09,0.05,1.62,-2.02,9.60
16585,0.18,-1.05,0.12,1.66,-2.03,9.51
16592,0.54,-1.29,0.37,1.78,-2.02,9.28
16596,0.65,-1.55,0.40,1.80,-2.01,9.25
16600,0.66,-1.58,0.41,1.80,-2.00,9.24
16605,0.67,-1.64,0.41,1.81,-2.00,9.24
16610,0.68,-1.67,0.41,1.81,-2.00,9.24
16615,0.68,-1.75,0.42,1.82,-1.99,9.24
16620,0.62,-1.87,0.44,1.84,-1.97,9.26
16626,0.59,-1.90,0.44,1.85,-1.96,9.28
16630,0.49,-1.51,0.49,1.83,-1.93,9.35
16635,0.42,-1.32,0.50,1.76,-1.91,9.47
16640,0.40,-1.31,0.50,1.76,-1.91,9.49
16645,0.39,-1.30,0.50,1.75,-1.91,9.50
16650,0.38,-1.29,0.50,1.75,-1.90,9.51
16655,0.37,-1.29,0.49,1.75,-1.90,9.52
16660,0.30,-1.23,0.45,1.73,-1.89,9.54
16665,0.27,-1.20,0.42,1.73,-1.89,9.54
16670,-0.05,-1.05,0.06,1.73,-1.87,9.51
16675,-0.12,-1.03,-0.03,1.74,-1.87,9.51
16680,-0.28,-0.96,-0.23,1.77,-1.87,9.50
16685,-0.31,-0.95,-0.27,1.77,-1.87,9.50
16691,-0.35,-0.93,-0.31,1.78,-1.88,9.49
16695,-0.49,-0.87,-0.48,1.81,-1.88,9.49
16700,-0.55,-0.84,-0.54,1.82,-1.89,9.48
16705,-0.58,-0.82,-0.57,1.82,-1.89,9.48
16710,-0.71,-0.74,-0.71,1.85,-1.91,9.48
16715,-0.84,-0.66,-0.81,1.86,-1.94,9.48
16720,-0.87,-0.61,-0.85,1.87,-1.96,9.48
16726,-0.82,-0.57,-0.84,1.87,-1.98,9.47
16730,-0.79,-0.56,-0.82,1.87,-1.98,9.47
16735,-0.69,-0.53,-0.75,1.88,-1.98,9.45
16741,-0.67,-0.52,-0.73,1.88,-1.98,9.45
16745,-0.60,-0.50,-0.68,1.88,-1.98,9.44
16750,-0.47,-0.46,-0.54,1.89,-1.97,9.43
16755,-0.34,-0.42,-0.40,1.89,-1.97,9.42
16760,-0.27,-0.41,-0.33,1.89,-1.96,9.41
16765,-0.22,-0.40,-0.26,1.88,-1.96,9.41
16770,0.06,-0.37,0.03,1.87,-1.93,9.36
16775,0.13,-0.37,0.09,1.87,-1.92,9.33
16780,0.14,-0.37,0.12,1.87,-1.91,9.31
16785,0.15,-0.38,0.12,1.87,-1.91,9.31
16790,0.16,-0.40,0.15,1.86,-1.91,9.29
16795,0.16,-0.45,0.18,1.85,-1.91,9.26
16800,0.16,-0.46,0.18,1.85,-1.92,9.26
16805,0.15,-0.48,0.18,1.84,-1.92,9.26
16810,0.12,-0.52,0.19,1.83,-1.93,9.26
16815,0.10,-0.54,0.19,1.82,-1.93,9.26
16820,0.07,-0.57,0.19,1.82,-1.94,9.26
16825,0.06,-0.58,0.19,1.81,-1.94,9.26
16830,-0.10,-0.73,0.17,1.77,-1.96,9.38
16835,-0.11,-0.75,0.17,1.75,-1.96,9.41
16840,-0.12,-0.77,0.16,1.74,-1.96,9.43
16845,-0.13,-0.79,0.16,1.72,-1.96,9.45
16850,-0.13,-0.80,0.16,1.67,-1.97,9.49
16855,-0.13,-0.79,0.15,1.64,-1.97,9.51
16860,-0.11,-0.77,0.11,1.57,-1.97,9.54
16865,-0.10,-0.74,0.09,1.55,-1.97,9.55
16870,-0.08,-0.71,0.07,1.53,-1.97,9.55
16876,-0.08,-0.69,0.06,1.53,-1.98,9.55
16880,-0.06,-0.65,0.05,1.51,-1.98,9.56
16885,-0.04,-0.61,0.05,1.50,-1.98,9.56
16891,-0.01,-0.54,0.06,1.49,-1.97,9.56
16895,0.04,-0.42,0.08,1.48,-1.97,9.56
16900,0.05,-0.42,0.10,1.49,-1.97,9.56
16905,0.04,-0.46,0.11,1.50,-1.96,9.56
16911,-0.07,-0.93,0.04,1.56,-1.96,9.55
16915,-0.10,-1.06,0.01,1.58,-1.95,9.55
16920,-0.13,-1.15,-0.01,1.59,-1.95,9.55
16925,-0.16,-1.29,-0.08,1.60,-1.95,9.54
16930,-0.19,-1.39,-0.16,1.60,-1.94,9.54
16935,-0.21,-1.44,-0.24,1.60,-1.94,9.54
16941,-0.22,-1.46,-0.27,1.59,-1.94,9.54
16945,-0.23,-1.47,-0.28,1.59,-1.94,9.53
16951,-0.22,-1.47,-0.29,1.59,-1.94,9.53
16955,-0.22,-1.46,-0.30,1.58,-1.94,9.53
16960,-0.15,-1.45,-0.65,1.55,-1.93,9.48
16965,-0.15,-1.46,-0.66,1.55,-1.93,9.48
16970,-0.14,-1.47,-0.67,1.55,-1.92,9.48
16976,-0.13,-1.47,-0.69,1.54,-1.92,9.47
16980,-0.13,-1.48,-0.70,1.54,-1.92,9.47
16985,-0.13,-1.50,-0.72,1.54,-1.92,9.45
16991,-0.12,-1.56,-0.76,1.54,-1.92,9.43
16995,-0.10,-1.60,-0.81,1.54,-1.93,9.42
17000,-0.09,-1.63,-0.85,1.54,-1.93,9.42
17005,-0.01,-1.72,-0.99,1.54,-1.94,9.41
17010,0.09,-1.78,-1.10,1.53,-1.95,9.41
17015,0.22,-1.79,-1.19,1.52,-1.95,9.41
17020,0.32,-1.78,-1.24,1.51,-1.96,9.40
17026,0.35,-1.76,-1.25,1.51,-1.96,9.40
17030,0.42,-1.71,-1.25,1.51,-1.96,9.39
17035,0.53,-1.59,-1.23,1.53,-1.96,8.76
17040,0.59,-1.51,-1.21,1.56,-1.96,7.30
17045,0.63,-1.46,-1.19,1.58,-1.96,5.39
17050,0.66,-1.42,-1.18,1.59,-1.96,4.37
17055,0.69,-1.38,-1.17,1.60,-1.97,3.23
17061,0.70,-1.36,-1.16,1.61,-1.97,2.36
17065,0.70,-1.36,-1.16,1.61,-1.97,2.25
17070,0.70,-1.35,-1.16,1.61,-1.97,2.18
17075,0.70,-1.35,-1.16,1.61,-1.97,1.88
17080,0.70,-1.34,-1.15,1.61,-1.97,1.73
17085,0.71,-1.32,-1.15,1.61,-1.97,1.74
17091,0.73,-1.28,-1.13,1.62,-1.97,2.09
17095,0.79,-1.12,-1.08,1.63,-1.97,3.12
17100,0.88,-0.77,-0.98,1.63,-1.96,5.26
17105,0.90,-0.70,-0.96,1.63,-1.96,5.78
17110,0.95,-0.47,-0.90,1.62,-1.96,7.54
17115,0.96,-0.40,-0.88,1.62,-1.95,8.04
17120,1.01,-0.23,-0.83,1.59,-1.95,9.11
17125,1.04,-0.11,-0.81,1.56,-1.93,9.67
17130,1.07,-0.02,-0.79,1.53,-1.92,9.95
17135,1.07,0.02,-0.79,1.53,-1.91,9.93
17142,1.07,0.05,-0.80,1.53,-1.90,9.88
17145,1.05,0.10,-0.80,1.54,-1.89,9.74
17150,1.03,0.11,-0.81,1.55,-1.88,9.66
17155,1.00,0.14,-0.82,1.57,-1.88,9.58
17161,0.96,0.23,-0.83,1.58,-1.88,9.50
17165,0.95,0.29,-0.84,1.58,-1.88,9.47
17170,0.94,0.37,-0.85,1.57,-1.88,9.46
17175,0.93,0.53,-0.87,1.56,-1.88,9.42
17180,0.93,0.62,-0.91,1.56,-1.88,9.38
17185,0.93,0.71,-0.94,1.55,-1.89,9.34
17190,0.93,0.96,-0.95,1.54,-1.89,9.25
17195,0.94,1.14,-0.91,1.53,-1.89,9.20
17200,0.94,1.23,-0.86,1.53,-1.87,9.20
17205,0.96,1.37,-0.74,1.54,-1.84,9.22
17210,1.01,1.50,-0.60,1.57,-1.81,9.30
17215,1.04,1.53,-0.54,1.62,-1.79,9.42
17220,0.98,1.34,-0.54,1.67,-1.80,9.54
17225,0.89,1.21,-0.55,1.69,-1.82,9.57
17230,0.83,1.10,-0.56,1.70,-1.83,9.57
17235,0.77,0.94,-0.57,1.73,-1.84,9.56
17241,0.74,0.74,-0.59,1.76,-1.84,9.53
17245,0.74,0.59,-0.60,1.81,-1.86,9.49
17250,0.77,0.50,-0.60,1.85,-1.87,9.46
17255,0.79,0.41,-0.61,1.93,-1.90,9.42
17260,0.75,0.37,-0.59,1.99,-1.93,9.40
17265,0.69,0.38,-0.52,2.06,-1.97,9.39
17270,0.61,0.48,-0.33,2.15,-2.03,9.38
17276,0.61,0.59,-0.14,2.18,-2.05,9.38
17280,0.64,0.71,0.06,2.20,-2.06,9.40
17285,0.64,0.82,0.25,2.20,-2.06,9.42
17291,0.63,0.90,0.40,2.20,-2.05,9.44
17295,0.62,0.94,0.49,2.20,-2.04,9.45
17300,0.50,1.02,0.80,2.19,-2.01,9.45
17306,0.40,1.04,0.95,2.19,-2.00,9.45
17311,0.23,1.04,1.12,2.18,-1.99,9.42
17315,-0.03,1.01,1.33,2.17,-1.99,9.39
17320,-0.72,0.89,1.67,2.14,-1.98,9.35
17325,-0.94,0.83,1.78,2.13,-1.98,9.34
17330,-1.05,0.78,1.80,2.13,-1.98,9.33
17335,-1.04,0.77,1.78,2.13,-1.98,9.33
17341,-1.07,0.75,1.77,2.13,-1.98,9.33
17345,-1.22,0.70,1.83,2.12,-1.98,9.34
17350,-1.65,0.42,2.14,2.09,-1.94,9.35
17355,-1.62,0.41,2.20,2.10,-1.93,9.35
17360,-1.57,0.40,2.26,2.10,-1.92,9.35
17365,-0.93,0.52,2.65,2.29,-1.88,9.34
17370,-0.93,0.53,2.65,2.29,-1.88,9.34
17376,-0.92,0.53,2.65,2.29,-1.88,9.34
17380,-0.86,0.50,2.62,2.29,-1.87,9.33
17385,-0.85,0.48,2.60,2.29,-1.87,9.33
17390,-0.85,0.47,2.57,2.28,-1.87,9.32
17395,-0.85,0.45,2.53,2.27,-1.87,9.32
17400,-0.87,0.44,2.47,2.25,-1.86,9.31
17406,-0.97,0.41,2.29,2.21,-1.85,9.29
17410,-1.00,0.42,2.24,2.20,-1.85,9.29
17415,-1.09,0.45,2.13,2.18,-1.84,9.29
17420,-1.33,0.57,1.84,2.14,-1.83,9.27
17426,-1.51,0.66,1.66,2.13,-1.83,9.26
17430,-1.76,0.76,1.47,2.13,-1.83,9.26
17435,-1.83,0.78,1.48,2.13,-1.83,9.27
17440,-1.85,0.78,1.51,2.12,-1.83,9.28
17445,-2.01,0.85,1.79,2.11,-1.83,9.36
17450,-2.04,0.87,1.88,2.10,-1.83,9.37
17455,-2.10,0.93,2.05,2.10,-1.82,9.39
17460,-2.32,1.38,2.79,2.11,-1.83,9.42
17465,-2.36,1.51,2.97,2.11,-1.83,9.42
17470,-2.44,1.75,3.29,2.11,-1.84,9.41
17475,-2.56,2.18,3.92,2.09,-1.87,9.39
17480,-2.59,2.28,4.06,2.08,-1.87,9.39
17485,-2.66,2.45,4.30,2.06,-1.89,9.38
17491,-2.80,2.64,4.55,2.03,-1.90,9.37
17495,-2.87,2.72,4.61,2.02,-1.91,9.37
17500,-3.12,2.93,4.68,2.00,-1.91,9.36
17505,-3.43,3.15,4.68,1.98,-1.91,9.35
17510,-3.72,3.39,4.57,1.97,-1.90,9.34
17515,-4.03,3.64,4.36,1.97,-1.90,9.34
17520,-4.40,3.93,4.04,1.96,-1.88,9.34
17526,-4.46,3.98,4.00,1.95,-1.88,9.34
17530,-4.69,4.15,3.85,1.95,-1.88,9.34
17535,-5.43,4.78,3.54,1.91,-1.88,9.35
17541,-5.70,5.03,3.45,1.90,-1.89,9.36
17545,-5.89,5.20,3.39,1.89,-1.89,9.37
17550,-6.27,5.54,3.27,1.87,-1.90,9.40
17556,-6.35,5.60,3.25,1.87,-1.90,9.41
17560,-6.98,6.06,3.06,1.89,-1.91,9.41
17565,-7.02,6.09,3.05,1.90,-1.91,9.40
17570,-7.10,6.16,3.02,1.91,-1.91,9.38
17575,-7.16,6.23,2.99,1.92,-1.91,9.37
17580,-7.24,6.33,2.94,1.92,-1.91,9.35
17585,-7.31,6.43,2.87,1.93,-1.91,9.33
17591,-7.55,6.68,2.69,1.93,-1.92,9.29
17595,-9.10,7.80,1.99,1.83,-2.05,9.29
17600,-9.26,7.91,1.99,1.81,-2.08,9.30
17605,-9.33,7.95,2.01,1.80,-2.09,9.31
17610,-9.39,8.00,2.03,1.79,-2.10,9.32
17615,-9.47,8.04,2.06,1.78,-2.11,9.32
17620,-9.99,8.19,2.26,1.72,-2.14,9.36
17625,-10.52,8.38,2.52,1.67,-2.14,9.38
17630,-10.69,8.45,2.64,1.65,-2.14,9.39
17635,-10.78,8.50,2.71,1.65,-2.14,9.39
17640,-10.86,8.54,2.80,1.64,-2.13,9.39
17645,-10.90,8.56,2.85,1.63,-2.13,9.39
17650,-11.02,8.64,3.02,1.62,-2.13,9.39
17655,-11.50,8.83,3.66,1.59,-2.13,9.38
17661,-11.85,8.91,3.97,1.58,-2.13,9.37
17665,-12.47,9.03,4.40,1.57,-2.15,9.35
17670,-12.73,9.11,4.58,1.57,-2.16,9.35
17675,-13.09,9.29,4.76,1.57,-2.17,9.34
17680,-13.37,9.41,4.89,1.57,-2.18,9.34
17685,-13.53,9.47,4.98,1.57,-2.18,9.33
17690,-14.26,9.78,5.41,1.58,-2.20,9.32
17695,-15.78,10.70,6.36,1.61,-2.22,9.30
17700,-16.56,11.19,6.91,1.63,-2.23,9.28
17706,-17.68,11.93,7.76,1.66,-2.24,9.27
17711,-18.67,12.83,8.68,1.70,-2.24,9.26
17715,-20.09,15.14,10.37,1.79,-2.25,9.24
17720,-20.40,16.25,10.98,1.82,-2.25,9.23
17725,-20.48,16.64,11.20,1.83,-2.26,9.23
17730,-20.61,17.35,11.58,1.84,-2.26,9.23
17735,-20.65,17.53,11.67,1.85,-2.26,9.23
17740,-20.73,18.17,11.97,1.86,-2.26,9.23
17745,-20.84,19.19,12.50,1.88,-2.25,9.22
17750,-20.97,20.45,13.21,1.89,-2.25,9.22
17755,-21.14,23.36,14.92,1.90,-2.23,9.19
17760,-21.34,25.90,16.39,1.91,-2.23,9.15
17765,-22.10,31.50,19.50,1.89,-2.29,9.01
17770,-22.43,33.30,20.41,1.88,-2.34,8.98
17775,-22.80,34.98,21.20,1.86,-2.40,8.95
17780,-24.90,46.20,26.68,1.66,-2.58,9.09
17785,-25.32,49.00,28.20,1.60,-2.54,9.17
17790,-25.79,53.23,30.52,1.50,-2.25,9.32
17795,-25.82,53.91,30.86,1.49,-2.20,9.35
17800,-25.94,56.91,32.35,1.46,-1.97,9.44
17806,-25.99,60.46,33.60,1.47,-1.79,9.53
17810,-25.94,63.40,34.12,1.52,-1.75,9.59
17815,-26.07,70.56,35.34,1.63,-1.70,9.73
