time_stamp,gyro_x,gyro_y,gyro_z,accel_x,accel_y,accel_z,quat_x,quat_y,quat_z,quat_w
3964,-42.71,-241.42,-51.16,-6.36,-5.21,13.18
3968,-46.46,-235.56,-52.73,-6.60,-5.00,13.20
3972,-49.35,-230.60,-53.90,-6.76,-4.83,13.27
3978,-52.32,-224.84,-55.07,-6.93,-4.64,13.36
3983,-62.19,-200.59,-59.02,-7.85,-3.76,13.65
3988,-63.66,-196.23,-59.61,-8.06,-3.60,13.69
3993,-65.26,-191.00,-60.27,-8.32,-3.40,13.72
3999,-68.47,-179.17,-61.58,-8.99,-2.96,13.78
4003,-70.66,-166.86,-62.50,-9.78,-2.52,13.80
4008,-71.58,-157.48,-62.89,-10.45,-2.23,13.77
4013,-69.96,-142.21,-62.47,-11.37,-2.04,13.32
4018,-69.53,-140.23,-62.34,-11.47,-2.03,13.21
4023,-68.90,-137.59,-62.14,-11.60,-2.02,13.06
4028,-66.97,-130.35,-61.52,-11.92,-2.01,12.59
4033,-65.78,-126.15,-61.12,-12.08,-2.00,12.33
4038,-62.66,-116.52,-59.88,-12.38,-2.00,11.71
4043,-54.62,-91.89,-55.68,-12.75,-2.07,10.64
4048,-52.68,-85.62,-54.48,-12.80,-2.10,10.44
4053,-43.00,-50.90,-47.57,-12.94,-2.45,9.65
4058,-40.32,-39.91,-45.55,-12.93,-2.58,9.43
4063,-39.10,-34.62,-44.62,-12.91,-2.64,9.33
4068,-36.64,-24.94,-42.96,-12.89,-2.77,9.14
4073,-32.18,-9.84,-41.35,-12.76,-2.90,8.97
4078,-31.32,-7.50,-41.29,-12.73,-2.90,8.97
4084,-29.92,-4.22,-41.33,-12.63,-2.88,8.99
4088,-25.81,4.05,-42.01,-12.09,-2.73,9.11
4093,-22.89,9.78,-42.87,-11.62,-2.61,9.14
4098,-19.81,15.53,-45.09,-10.90,-2.43,9.11
4103,-13.72,26.57,-51.08,-9.25,-1.96,8.91
4108,18.15,83.57,-87.41,-1.30,1.14,5.80
4114,31.80,108.20,-103.99,1.87,3.18,3.40
4118,35.06,116.17,-107.62,2.70,4.00,2.46
4123,38.20,125.16,-110.31,3.57,5.03,1.33
4128,38.63,138.30,-108.35,4.09,6.31,0.37
4133,33.01,156.52,-87.68,4.04,7.43,2.16
4138,31.23,160.76,-80.69,3.93,7.60,3.25
4144,28.94,165.64,-70.86,3.77,7.77,5.00
4148,26.29,170.89,-58.60,3.57,7.89,7.26
4152,20.48,180.55,-24.88,3.09,7.96,13.48
4158,18.65,181.97,-7.87,2.91,7.79,15.99
4163,17.50,179.13,1.58,2.84,7.37,16.88
4168,16.38,174.70,6.92,2.83,6.86,16.87
4173,15.19,169.34,11.47,2.82,6.25,16.76
4179,13.83,164.69,14.12,2.83,5.73,16.50
4183,11.84,160.22,16.00,2.84,5.25,16.14
4188,6.92,151.90,18.43,2.86,4.36,15.42
4193,-0.38,144.02,19.02,2.89,3.52,14.85
4199,-3.89,140.72,17.71,2.89,3.21,15.04
4203,-4.33,139.81,17.13,2.90,3.17,15.15
4208,-4.73,137.13,15.75,2.91,3.13,15.40
4214,-4.94,128.84,12.49,3.00,3.08,15.89
4218,-4.74,120.61,10.71,3.10,2.96,15.90
4223,-4.48,110.81,9.14,3.20,2.76,15.60
4229,-4.27,99.81,7.89,3.30,2.45,15.07
4234,-4.06,85.53,6.70,3.41,1.93,14.22
4238,-3.99,69.36,5.86,3.50,1.31,13.18
4244,-4.02,62.65,5.63,3.53,1.05,12.71
4249,-4.44,39.45,5.54,3.59,0.19,11.25
4253,-4.68,33.92,5.70,3.59,0.01,10.96
4259,-4.98,26.27,5.92,3.59,-0.27,10.68
4263,-5.19,19.12,5.99,3.57,-0.57,10.44
4267,-5.20,18.10,5.88,3.56,-0.63,10.40
4272,-5.21,16.25,5.51,3.54,-0.75,10.29
4279,-5.41,14.84,4.99,3.50,-0.87,10.06
4283,-5.65,14.13,4.65,3.46,-0.94,9.89
4288,-5.97,13.44,4.32,3.41,-1.01,9.69
4294,-6.73,12.57,3.88,3.32,-1.10,9.40
4299,-7.44,11.87,3.57,3.25,-1.13,9.22
4303,-8.26,11.15,3.26,3.20,-1.15,9.09
4308,-10.01,9.66,2.58,3.12,-1.19,8.94
4315,-11.15,8.72,2.07,3.10,-1.21,8.90
4319,-11.94,8.11,1.64,3.09,-1.26,8.90
4323,-12.24,7.80,1.41,3.09,-1.29,8.90
4328,-12.32,7.37,1.15,3.11,-1.34,8.92
4333,-12.20,7.00,0.95,3.14,-1.39,8.93
4338,-11.78,6.52,0.83,3.19,-1.44,8.94
4344,-10.96,6.00,0.78,3.26,-1.45,8.95
4350,-9.77,5.37,0.77,3.34,-1.49,8.97
4353,-8.91,4.95,0.80,3.37,-1.55,8.99
4358,-7.63,4.62,0.93,3.32,-1.70,9.06
4363,-6.54,4.53,1.15,3.19,-1.86,9.16
4368,-6.28,4.52,1.23,3.15,-1.89,9.18
4373,-5.91,4.62,1.42,3.05,-1.97,9.22
4379,-5.54,4.76,1.56,2.98,-2.02,9.26
4383,-4.89,4.92,1.75,2.89,-2.06,9.32
4388,-2.93,5.39,2.26,2.66,-2.11,9.49
4393,-1.64,5.55,2.40,2.58,-2.09,9.58
4398,-0.75,5.58,2.41,2.56,-2.06,9.60
4403,0.84,5.53,2.38,2.55,-2.00,9.61
4407,1.51,5.42,2.33,2.56,-1.97,9.59
4413,2.04,5.24,2.27,2.57,-1.94,9.56
4417,2.40,4.97,2.22,2.57,-1.92,9.53
4422,2.51,4.82,2.21,2.56,-1.91,9.52
4428,2.56,4.69,2.18,2.56,-1.91,9.51
4433,2.58,4.49,2.16,2.53,-1.91,9.50
4438,2.59,4.45,2.15,2.51,-1.90,9.49
4443,2.62,4.36,2.13,2.49,-1.90,9.49
4447,2.67,4.24,2.07,2.42,-1.89,9.49
4453,2.95,4.05,2.02,2.32,-1.85,9.48
4460,3.15,3.99,2.03,2.30,-1.80,9.47
4465,3.45,3.93,2.07,2.29,-1.71,9.43
4470,3.56,3.91,2.06,2.29,-1.67,9.41
4472,3.68,3.89,2.05,2.29,-1.62,9.40
4478,3.78,3.84,2.00,2.29,-1.58,9.38
4483,3.82,3.80,1.95,2.28,-1.56,9.37
4488,3.82,3.76,1.90,2.27,-1.54,9.37
4494,3.68,3.66,1.80,2.25,-1.52,9.36
4498,3.50,3.60,1.75,2.24,-1.50,9.37
4503,3.20,3.55,1.70,2.23,-1.49,9.38
4508,2.87,3.49,1.63,2.22,-1.48,9.40
4513,2.47,3.44,1.54,2.21,-1.48,9.44
4518,2.15,3.41,1.42,2.21,-1.49,9.47
4523,1.83,3.39,1.29,2.20,-1.51,9.51
4528,1.67,3.39,1.23,2.19,-1.52,9.52
4533,1.55,3.39,1.16,2.19,-1.53,9.53
4538,1.12,3.42,1.02,2.18,-1.56,9.57
4543,0.94,3.42,0.98,2.18,-1.57,9.58
4548,0.77,3.43,0.95,2.18,-1.58,9.61
4553,0.41,3.44,0.90,2.15,-1.61,9.69
4558,0.17,3.45,0.88,2.10,-1.62,9.78
4563,-0.01,3.46,0.87,2.05,-1.63,9.85
4568,-0.22,3.45,0.87,2.02,-1.63,9.90
4573,-0.51,3.43,0.87,2.00,-1.63,9.94
4579,-0.71,3.41,0.87,2.01,-1.63,9.93
4583,-1.02,3.36,0.87,2.08,-1.61,9.90
4588,-1.75,3.36,0.86,2.31,-1.51,9.76
4593,-2.05,3.44,0.84,2.41,-1.48,9.70
4599,-2.26,3.55,0.82,2.47,-1.46,9.65
4603,-2.62,3.84,0.80,2.56,-1.47,9.56
4608,-2.72,3.95,0.80,2.59,-1.48,9.53
4613,-3.03,4.35,0.81,2.64,-1.50,9.44
4618,-3.19,4.62,0.87,2.66,-1.52,9.40
4623,-3.36,4.90,0.96,2.67,-1.52,9.36
4629,-3.52,5.17,1.05,2.67,-1.52,9.34
4633,-3.78,5.69,1.27,2.66,-1.51,9.32
4638,-3.89,5.94,1.37,2.66,-1.50,9.32
4644,-4.24,7.17,1.73,2.64,-1.48,9.32
4648,-4.30,7.62,1.82,2.61,-1.47,9.32
4653,-4.15,7.95,1.83,2.57,-1.47,9.33
4658,-3.70,8.43,1.78,2.45,-1.47,9.35
4664,-3.28,8.71,1.71,2.33,-1.47,9.39
4668,-2.91,8.90,1.64,2.23,-1.46,9.45
4673,-2.77,9.01,1.60,2.19,-1.46,9.48
4679,-2.65,9.23,1.54,2.14,-1.46,9.52
4684,-2.67,9.39,1.51,2.13,-1.46,9.55
4687,-3.35,10.65,1.41,2.13,-1.48,9.59
4693,-3.90,11.64,1.34,2.15,-1.50,9.58
4698,-4.51,12.78,1.25,2.18,-1.51,9.56
4703,-5.23,14.41,1.08,2.22,-1.52,9.51
4708,-5.52,15.31,0.99,2.24,-1.53,9.47
4714,-5.68,16.03,0.92,2.26,-1.53,9.45
4718,-5.97,17.69,0.79,2.30,-1.55,9.39
4723,-6.06,18.61,0.78,2.32,-1.56,9.37
4728,-6.22,20.79,0.83,2.34,-1.57,9.32
4733,-6.37,22.95,1.09,2.33,-1.57,9.28
4738,-6.42,23.88,1.22,2.30,-1.57,9.25
4744,-6.44,24.19,1.27,2.29,-1.57,9.24
4749,-6.52,26.40,1.65,2.19,-1.58,9.18
4753,-6.47,29.49,2.19,2.06,-1.59,9.11
4759,-6.39,31.39,2.52,1.98,-1.60,9.08
4763,-6.31,32.56,2.71,1.95,-1.61,9.06
4768,-6.12,34.21,2.97,1.94,-1.61,9.05
4773,-5.67,37.29,3.46,2.03,-1.63,9.04
4779,-5.23,39.94,3.93,2.20,-1.65,9.04
4783,-4.91,42.53,4.46,2.37,-1.75,9.07
4788,-4.46,47.06,5.46,2.59,-1.99,9.15
4794,-4.12,51.26,6.46,2.70,-2.21,9.24
4798,-3.86,54.44,7.38,2.76,-2.35,9.29
4803,-3.65,57.30,8.27,2.78,-2.44,9.33
4808,-3.25,64.71,10.76,2.76,-2.55,9.37
4814,-2.98,70.47,12.79,2.71,-2.57,9.38
4818,-2.86,73.78,13.94,2.66,-2.55,9.38
4823,-2.70,78.22,15.43,2.57,-2.51,9.37
4828,-2.15,87.72,18.14,2.39,-2.42,9.35
4833,-1.39,95.84,20.06,2.30,-2.34,9.34
4839,-0.06,106.80,21.95,2.25,-2.24,9.34
4845,0.49,111.42,22.47,2.24,-2.17,9.33
4850,1.16,115.83,23.02,2.27,-2.08,9.32
4853,1.96,124.37,23.72,2.32,-1.91,9.30
4858,2.78,136.40,24.40,2.39,-1.62,9.27
4864,3.00,141.73,24.91,2.41,-1.53,9.27
4868,2.54,146.85,25.67,2.42,-1.43,9.28
4873,1.78,152.35,26.38,2.44,-1.35,9.29
4879,-2.35,172.55,31.12,2.52,-1.23,9.31
4883,-5.18,183.79,34.17,2.60,-1.29,9.41
4888,-6.47,189.01,35.68,2.63,-1.41,9.49
4893,-7.98,195.04,37.60,2.64,-1.62,9.80
4898,-9.58,202.28,40.25,2.59,-1.98,10.73
4903,-10.19,208.07,42.97,2.45,-2.24,11.78
4908,-10.69,217.74,48.47,2.10,-2.61,13.76
4913,-10.89,224.59,52.68,1.98,-2.75,14.62
4918,-10.76,228.79,55.38,1.96,-2.80,15.20
4923,-10.35,232.59,57.97,2.00,-2.85,15.70
4929,-9.54,238.27,61.93,2.09,-2.95,16.30
4934,-4.79,258.26,78.97,2.86,-3.29,17.55
4938,-3.67,260.14,80.97,2.87,-3.34,17.61
4944,-0.87,263.18,85.19,2.83,-3.43,17.69
4948,2.84,264.21,88.64,2.75,-3.52,17.69
4953,6.10,263.40,90.29,2.66,-3.58,17.64
4959,15.46,251.61,91.80,2.54,-3.63,17.43
4965,19.15,240.41,91.21,3.10,-3.60,17.29
4969,22.61,225.87,90.46,3.96,-3.53,17.10
4972,26.37,198.43,89.05,5.65,-3.36,16.64
4978,27.85,161.62,87.74,7.83,-3.12,15.97
4983,27.57,147.57,87.50,8.62,-3.04,15.70
4988,26.93,134.93,87.46,9.26,-2.98,15.45
4994,21.09,87.91,88.26,10.98,-2.87,14.40
4999,19.96,80.55,88.44,11.15,-2.87,14.18
5003,15.22,52.01,89.31,11.43,-2.92,12.93
5009,12.90,37.66,89.81,11.42,-2.97,12.05
5013,11.46,27.10,89.96,11.33,-3.01,11.22
5018,9.95,13.46,89.29,11.16,-3.08,9.93
5023,9.30,-4.92,85.48,10.83,-3.14,8.18
5029,9.16,-11.28,82.84,10.70,-3.16,7.59
5033,8.78,-21.30,76.10,10.47,-3.16,6.94
5038,8.55,-25.48,71.93,10.36,-3.15,6.78
5043,8.08,-30.14,66.85,10.22,-3.14,6.73
5048,5.66,-35.37,59.08,9.99,-3.09,6.80
5053,4.46,-37.83,55.87,9.90,-3.07,6.88
5059,-1.99,-48.72,42.77,9.42,-2.96,7.26
5063,-5.70,-58.25,34.85,9.12,-2.88,7.46
5067,-7.21,-62.64,31.87,9.03,-2.85,7.51
5073,-17.46,-107.37,8.93,7.96,-2.56,8.19
5078,-19.97,-125.40,3.18,7.47,-2.44,8.55
5083,-20.91,-135.27,0.65,7.16,-2.37,8.81
5087,-21.73,-145.01,-1.63,6.83,-2.29,9.11
5093,-22.41,-155.69,-4.10,6.44,-2.18,9.47
5098,-22.64,-170.25,-7.49,5.87,-1.97,9.96
5102,-22.58,-176.19,-8.88,5.62,-1.85,10.14
5108,-22.12,-187.33,-11.51,5.11,-1.56,10.42
5113,-21.66,-193.86,-12.98,4.80,-1.36,10.55
5118,-20.37,-205.57,-15.02,4.23,-0.98,10.73
5123,-19.56,-211.11,-15.63,3.96,-0.82,10.82
5128,-18.70,-216.23,-15.94,3.73,-0.69,10.92
5133,-17.69,-221.68,-15.89,3.48,-0.58,11.05
5137,-16.24,-231.01,-14.57,3.08,-0.49,11.40
5144,-15.73,-234.83,-13.62,2.92,-0.47,11.60
5148,-15.40,-238.33,-12.35,2.77,-0.47,11.85
5153,-15.44,-242.59,-10.23,2.58,-0.51,12.24
5157,-16.74,-248.02,-6.03,2.29,-0.72,13.07
5163,-17.57,-249.41,-4.64,2.18,-0.85,13.38
5167,-18.02,-250.06,-4.00,2.12,-0.93,13.53
5173,-18.43,-250.70,-3.44,2.06,-1.02,13.68
5178,-19.03,-251.68,-2.65,1.96,-1.16,13.91
5183,-20.03,-253.47,-1.45,1.74,-1.46,14.30
5188,-20.64,-256.75,-0.55,1.49,-1.77,14.63
5193,-20.81,-260.59,-0.12,1.30,-1.98,14.80
5198,-20.76,-264.22,0.07,1.17,-2.08,14.86
5203,-20.64,-267.21,0.14,1.07,-2.16,14.90
5208,-20.45,-270.24,0.14,0.95,-2.28,14.93
5213,-20.01,-274.33,0.11,0.72,-2.54,14.99
5218,-19.72,-275.08,0.08,0.62,-2.74,15.05
5223,-19.39,-275.15,0.03,0.53,-2.98,15.12
5228,-18.98,-274.79,-0.02,0.41,-3.27,15.21
5233,-18.09,-273.57,-0.23,0.15,-3.88,15.39
5237,-17.09,-271.14,-1.21,-0.39,-4.73,15.58
5244,-16.29,-268.60,-2.87,-0.95,-5.33,15.70
5248,-16.04,-267.23,-4.08,-1.21,-5.52,15.73
5252,-16.34,-265.71,-5.89,-1.52,-5.76,15.76
5258,-17.13,-263.18,-8.81,-2.02,-6.02,15.78
5263,-21.67,-256.81,-17.05,-2.88,-6.20,15.75
5267,-34.54,-245.58,-27.66,-4.01,-6.12,15.48
5272,-43.89,-238.27,-32.75,-4.70,-5.92,15.21
5278,-50.26,-232.87,-35.68,-5.17,-5.76,15.01
5283,-61.46,-222.06,-40.60,-5.96,-5.21,14.57
5287,-66.96,-215.38,-43.15,-6.34,-4.83,14.32
5293,-78.00,-193.64,-50.48,-7.18,-3.68,13.58
5297,-79.99,-185.36,-53.06,-7.40,-3.33,13.34
5303,-81.67,-172.26,-57.02,-7.76,-2.88,12.97
5309,-82.13,-167.06,-58.51,-7.91,-2.74,12.83
5314,-82.76,-151.40,-62.64,-8.34,-2.39,12.46
5318,-81.05,-120.63,-69.01,-9.37,-1.86,11.86
5323,-77.92,-92.42,-73.26,-10.52,-1.52,11.44
5328,-75.33,-80.86,-74.69,-11.09,-1.40,11.32
5333,-72.82,-72.87,-75.74,-11.51,-1.32,11.23
5338,6.55,180.31,1.32,2.61,6.60,15.39
5343,2.35,169.20,17.09,2.36,3.83,13.44
5348,-4.64,156.07,28.65,2.57,0.47,11.22
5353,-5.93,154.37,30.25,2.63,-0.05,10.93
5358,-7.12,153.27,31.33,2.69,-0.55,10.67
5363,-7.81,152.59,31.47,2.72,-0.83,10.55
5368,-8.73,151.30,31.02,2.77,-1.18,10.46
5372,-9.94,148.95,29.64,2.83,-1.58,10.41
5378,-11.96,143.54,25.64,2.93,-2.13,10.40
5383,-12.52,140.11,23.98,2.94,-2.22,10.45
5387,-12.63,138.61,23.34,2.94,-2.23,10.49
5393,-12.62,136.96,22.69,2.93,-2.20,10.54
5398,-8.10,88.90,11.30,3.07,-1.29,11.20
5403,-2.00,56.40,7.25,3.29,-0.98,11.18
5408,1.86,39.29,6.29,3.43,-0.95,10.90
5413,2.16,37.89,6.32,3.44,-0.96,10.85
5417,2.35,36.99,6.36,3.45,-0.97,10.82
5423,2.60,35.77,6.42,3.46,-0.98,10.78
5428,2.76,34.97,6.47,3.47,-0.99,10.75
5433,2.89,34.23,6.52,3.48,-0.99,10.73
5438,3.08,33.04,6.62,3.49,-1.01,10.69
5443,3.19,32.27,6.70,3.49,-1.02,10.66
5448,3.29,31.23,6.79,3.50,-1.04,10.62
5453,3.37,28.52,6.95,3.53,-1.08,10.47
5458,3.33,24.07,6.97,3.60,-1.13,10.09
5463,3.24,22.68,6.88,3.61,-1.13,9.97
5468,3.07,21.20,6.45,3.61,-1.11,9.82
5472,2.83,19.71,5.88,3.61,-1.07,9.70
5478,2.55,18.28,5.39,3.60,-1.04,9.62
5483,2.24,16.93,4.93,3.59,-1.00,9.56
5487,2.03,16.16,4.68,3.59,-0.98,9.54
5493,1.82,15.54,4.50,3.59,-0.97,9.53
5498,1.12,13.96,4.15,3.59,-0.93,9.50
5503,0.20,12.73,3.94,3.60,-0.90,9.50
5507,-0.46,12.23,3.89,3.61,-0.87,9.53
5513,-1.43,11.69,3.86,3.60,-0.85,9.59
5517,-1.95,11.50,3.86,3.59,-0.85,9.61
5523,-2.96,11.32,3.89,3.55,-0.88,9.63
5528,-4.71,11.09,3.94,3.45,-0.98,9.66
5533,-5.66,10.93,3.95,3.38,-1.05,9.65
5538,-6.98,10.66,3.90,3.26,-1.18,9.61
5543,-7.83,10.46,3.85,3.18,-1.28,9.58
5548,-8.67,10.25,3.79,3.09,-1.38,9.54
5553,-10.75,9.34,3.34,2.80,-1.64,9.43
5558,-12.15,8.38,2.79,2.56,-1.83,9.34
5564,-12.34,8.16,2.66,2.52,-1.86,9.32
5568,-12.56,7.92,2.51,2.46,-1.89,9.30
5573,-12.74,7.76,2.40,2.42,-1.91,9.29
5578,-12.88,7.62,2.30,2.39,-1.93,9.28
5583,-13.08,7.27,2.06,2.36,-1.97,9.26
5587,-13.14,6.91,1.85,2.38,-1.99,9.24
5593,-13.16,6.56,1.64,2.40,-2.00,9.22
5598,-13.18,6.12,1.38,2.44,-2.01,9.20
5603,-13.20,5.66,1.12,2.48,-2.02,9.17
5609,-13.19,5.35,0.94,2.51,-2.03,9.16
5613,-13.15,5.00,0.76,2.57,-2.02,9.16
5617,-12.89,4.50,0.54,2.72,-1.97,9.19
5623,-12.80,4.44,0.51,2.74,-1.95,9.20
5627,-12.71,4.40,0.49,2.75,-1.93,9.21
5633,-12.62,4.36,0.48,2.76,-1.91,9.23
5638,-12.43,4.31,0.51,2.78,-1.87,9.27
5644,-12.24,4.31,0.60,2.79,-1.84,9.30
5648,-12.13,4.32,0.65,2.79,-1.82,9.32
5653,-11.89,4.36,0.75,2.79,-1.79,9.34
5659,-10.00,4.66,1.60,2.78,-1.65,9.47
5664,-9.42,4.83,1.93,2.76,-1.63,9.49
5668,-9.16,4.92,2.09,2.75,-1.62,9.51
5674,-8.97,5.02,2.26,2.74,-1.62,9.52
5680,-8.86,5.08,2.36,2.73,-1.61,9.53
5684,-8.75,5.14,2.45,2.72,-1.61,9.54
5688,-8.41,5.37,2.66,2.68,-1.59,9.56
5693,-8.31,5.47,2.66,2.64,-1.57,9.58
5698,-8.28,5.46,2.23,2.57,-1.57,9.59
5703,-8.24,5.37,1.75,2.49,-1.63,9.60
5709,-8.19,5.29,1.44,2.43,-1.68,9.60
5714,-8.14,5.22,1.28,2.39,-1.72,9.60
5718,-8.10,5.16,1.16,2.36,-1.74,9.60
5723,-8.06,5.10,1.08,2.34,-1.77,9.60
5728,-8.03,5.05,1.05,2.32,-1.78,9.60
5733,-7.97,4.97,1.00,2.31,-1.80,9.60
5738,-7.94,4.93,0.97,2.30,-1.80,9.60
5744,-7.88,4.86,0.94,2.28,-1.82,9.61
5749,-7.83,4.80,0.92,2.27,-1.83,9.61
5753,-7.79,4.75,0.91,2.26,-1.83,9.61
5758,-7.73,4.69,0.90,2.25,-1.84,9.61
5763,-7.61,4.58,0.90,2.24,-1.84,9.61
5768,-7.40,4.44,0.91,2.22,-1.85,9.62
5773,-7.17,4.29,0.92,2.22,-1.85,9.62
5779,-6.55,3.99,0.95,2.23,-1.85,9.60
5783,-5.95,3.74,0.98,2.25,-1.84,9.58
5788,-5.63,3.61,0.98,2.26,-1.83,9.56
5793,-5.02,3.44,1.00,2.29,-1.82,9.54
5798,-4.61,3.35,1.00,2.31,-1.80,9.52
5803,-3.83,3.21,0.94,2.35,-1.77,9.50
5808,-3.33,3.16,0.88,2.37,-1.75,9.50
5814,-2.97,3.14,0.81,2.39,-1.73,9.49
5818,-1.93,3.08,0.46,2.42,-1.69,9.49
5823,-1.55,3.03,0.33,2.42,-1.69,9.50
5829,-1.41,3.00,0.28,2.42,-1.70,9.50
5833,-1.25,2.97,0.24,2.41,-1.71,9.50
5837,-0.79,2.85,0.13,2.38,-1.78,9.52
5843,-0.75,2.84,0.12,2.37,-1.80,9.52
5848,-0.68,2.81,0.10,2.35,-1.83,9.53
5853,-0.64,2.79,0.09,2.34,-1.85,9.54
5858,-0.62,2.79,0.09,2.33,-1.87,9.54
5862,-0.61,2.80,0.09,2.32,-1.89,9.55
5868,-0.60,2.81,0.10,2.29,-1.94,9.56
5873,-0.60,2.84,0.10,2.25,-1.99,9.58
5879,-0.60,2.86,0.11,2.24,-2.02,9.59
5883,-0.62,2.96,0.13,2.20,-2.09,9.62
5888,-0.64,3.11,0.15,2.18,-2.14,9.64
5893,-0.67,3.28,0.17,2.16,-2.17,9.66
5898,-0.70,3.56,0.20,2.15,-2.20,9.68
5903,-0.74,4.13,0.24,2.15,-2.15,9.69
5909,-0.72,4.74,0.31,2.18,-1.90,9.68
5914,-0.61,4.95,0.38,2.21,-1.74,9.67
5918,-0.46,5.05,0.45,2.24,-1.65,9.66
5923,-0.33,5.27,0.51,2.26,-1.63,9.64
5928,-0.32,5.57,0.54,2.28,-1.63,9.62
5933,-0.37,5.93,0.58,2.31,-1.63,9.59
5938,-0.44,6.27,0.63,2.33,-1.62,9.57
5944,-0.49,6.49,0.66,2.34,-1.63,9.58
5948,-0.54,6.66,0.70,2.33,-1.65,9.60
5952,-0.71,7.33,0.79,2.36,-1.75,9.66
5958,-0.86,7.82,0.81,2.38,-1.78,9.66
5963,-0.97,8.13,0.80,2.41,-1.78,9.63
5968,-1.15,8.70,0.79,2.45,-1.79,9.56
5973,-1.68,10.81,0.39,2.33,-1.88,9.50
5978,-1.77,11.39,0.20,2.24,-1.89,9.50
5982,-1.91,12.49,-0.23,2.01,-1.86,9.49
5987,-1.97,12.72,-0.32,1.97,-1.84,9.48
5993,-2.02,12.92,-0.42,1.92,-1.83,9.46
5998,-2.12,13.30,-0.53,1.91,-1.82,9.41
6002,-2.42,13.72,-0.59,1.93,-1.83,9.34
6008,-2.60,13.94,-0.59,1.95,-1.83,9.32
6013,-3.13,14.53,-0.50,1.98,-1.85,9.29
6018,-3.32,14.85,-0.45,1.99,-1.86,9.28
6023,-3.95,16.35,-0.23,2.02,-1.91,9.27
6030,-4.08,16.63,-0.19,2.02,-1.91,9.28
6033,-4.69,20.59,0.93,2.04,-2.04,9.29
6038,-4.88,20.91,1.16,2.04,-2.05,9.30
6043,-4.89,20.71,1.13,2.05,-2.05,9.30
6048,-4.87,20.68,1.14,2.05,-2.05,9.30
6053,-4.81,20.85,1.22,2.05,-2.06,9.30
6059,-4.68,21.64,1.51,2.06,-2.08,9.31
6064,-4.40,24.27,2.64,2.11,-2.14,9.34
6068,-4.16,26.83,3.86,2.18,-2.17,9.39
6073,-4.10,27.33,4.09,2.19,-2.17,9.40
6078,-4.05,27.77,4.28,2.21,-2.18,9.41
6083,-3.97,28.42,4.56,2.23,-2.18,9.43
6088,-3.20,36.85,7.84,2.33,-2.15,9.61
6093,-3.07,40.07,8.74,2.36,-2.13,9.66
6098,-2.92,43.12,9.57,2.34,-2.12,9.69
6103,-2.87,47.66,10.66,2.32,-2.11,9.65
6108,-2.83,56.48,12.30,2.26,-2.10,9.57
6113,-2.99,61.20,13.09,2.20,-2.11,9.48
6118,-3.33,64.71,13.71,2.12,-2.12,9.39
6124,-4.20,68.23,14.23,1.97,-2.13,9.28
6130,-4.39,68.58,14.25,1.94,-2.14,9.26
6133,-4.67,68.92,14.28,1.91,-2.14,9.25
6138,-4.80,69.93,14.31,1.90,-2.14,9.25
6144,-5.08,77.60,14.44,1.89,-2.14,9.27
6148,-5.09,80.70,14.53,1.90,-2.13,9.28
6152,-5.10,88.21,14.80,1.95,-2.09,9.32
6159,-5.06,105.33,15.42,2.12,-1.87,9.41
6163,-5.04,109.28,15.56,2.17,-1.80,9.43
6168,-5.01,116.91,15.80,2.27,-1.68,9.47
6174,-5.30,134.52,16.17,2.38,-1.62,9.62
6179,-6.00,138.71,16.20,2.34,-1.68,9.69
6183,-7.58,144.87,16.25,2.24,-1.79,9.81
6188,-11.38,152.59,16.20,1.93,-1.97,10.02
6193,-13.41,155.67,16.15,1.75,-2.05,10.12
6199,-18.62,163.38,16.30,1.34,-2.20,10.45
6203,-25.43,173.36,17.39,0.81,-2.32,11.03
6208,-26.09,174.34,17.70,0.78,-2.32,11.11
6213,-26.85,175.45,18.18,0.77,-2.32,11.22
6218,-29.05,179.37,19.74,0.86,-2.27,11.52
6225,-31.64,186.53,22.51,1.49,-2.06,11.95
6230,-32.49,193.83,24.19,1.94,-1.90,12.19
6233,-32.92,208.88,28.00,2.37,-1.84,12.72
6237,-32.95,212.92,29.16,2.42,-1.85,12.87
6243,-32.97,219.82,31.23,2.49,-1.89,13.15
6248,-32.70,235.45,36.34,2.55,-2.06,13.80
6253,-32.15,245.58,39.82,2.55,-2.22,14.24
6258,-28.83,273.33,49.96,2.44,-2.70,15.38
6263,-27.18,280.42,52.69,2.36,-2.83,15.65
6267,-23.36,292.57,57.85,2.19,-3.05,16.10
6273,-17.30,304.28,63.70,1.90,-3.27,16.54
6278,-12.68,309.65,67.59,1.74,-3.32,16.67
6283,-6.66,313.02,72.47,1.69,-3.20,16.68
6287,-2.87,312.58,76.64,1.84,-2.80,16.61
6294,-1.87,309.22,78.67,2.12,-2.37,16.53
6298,-1.84,306.49,79.60,2.28,-2.14,16.54
6302,-1.87,299.49,80.98,2.58,-1.74,16.66
6309,-1.88,292.00,82.03,2.88,-1.47,16.81
6312,-1.84,286.94,82.30,3.05,-1.37,16.92
6317,-1.62,272.47,81.81,3.41,-1.22,17.22
6323,-1.16,254.15,80.68,3.83,-1.13,17.54
6327,3.68,173.81,74.99,5.40,-1.10,18.36
6333,5.67,151.54,73.39,5.77,-1.13,18.57
6338,9.99,104.80,70.56,6.56,-1.22,18.06
6345,17.28,50.71,68.13,7.43,-1.30,16.88
6349,24.23,3.99,66.52,8.18,-1.35,14.87
6353,28.15,-21.16,65.85,8.56,-1.37,13.14
6359,31.24,-41.28,65.33,8.78,-1.40,11.26
6363,33.90,-59.99,64.97,8.93,-1.43,9.11
6368,37.25,-77.04,63.80,8.74,-1.53,6.45
6373,38.61,-79.96,62.46,8.43,-1.64,5.68
6377,39.26,-79.25,61.23,8.20,-1.74,5.54
6382,39.54,-78.14,59.54,7.93,-1.87,5.57
6388,39.51,-77.70,57.83,7.77,-1.99,5.69
6393,39.23,-77.35,55.22,7.63,-2.13,5.85
6398,36.86,-80.66,44.32,7.19,-2.58,6.33
6403,36.08,-82.82,41.21,7.08,-2.69,6.43
6408,34.15,-89.70,33.74,6.79,-2.92,6.70
6413,31.81,-101.51,25.22,6.39,-3.14,6.97
6417,29.72,-115.36,16.99,5.95,-3.24,7.38
6423,28.66,-124.31,12.46,5.67,-3.25,7.72
6427,26.63,-142.81,3.53,5.22,-3.01,8.76
6433,26.26,-147.46,1.54,5.14,-2.89,9.07
6438,25.97,-152.06,-0.38,5.09,-2.77,9.37
6444,25.43,-161.95,-4.28,5.01,-2.48,10.00
6449,25.12,-167.51,-6.18,4.92,-2.35,10.29
6453,24.72,-174.70,-8.43,4.72,-2.22,10.63
6460,23.31,-190.98,-11.76,3.96,-2.05,11.18
6465,21.83,-201.73,-12.94,3.31,-2.00,11.42
6467,21.03,-207.02,-13.22,3.01,-1.98,11.50
6472,17.71,-227.08,-13.30,1.97,-1.94,11.66
6478,16.13,-236.51,-12.76,1.62,-1.93,11.67
6482,14.23,-247.62,-11.53,1.35,-1.92,11.66
6487,13.73,-250.80,-10.96,1.30,-1.92,11.65
6493,13.26,-253.74,-10.29,1.24,-1.92,11.64
6498,12.60,-257.46,-9.28,1.17,-1.92,11.63
6503,11.27,-264.31,-6.32,1.06,-2.01,11.61
6508,10.36,-267.00,-4.81,0.97,-2.12,11.63
6513,7.34,-270.88,-1.72,0.73,-2.54,11.91
6518,6.82,-271.20,-1.43,0.69,-2.61,11.98
6523,4.22,-272.00,-0.57,0.57,-2.89,12.33
6530,-0.21,-272.06,-0.26,0.46,-3.21,12.85
6533,-3.58,-272.01,-0.21,0.41,-3.39,13.20
6538,-8.25,-271.66,-0.68,0.37,-3.54,13.61
6545,-11.00,-271.33,-1.28,0.35,-3.58,13.87
6548,-13.30,-271.00,-1.87,0.33,-3.60,14.11
6553,-16.56,-270.43,-2.90,0.29,-3.61,14.46
6560,-19.87,-269.73,-4.12,0.25,-3.62,14.86
6564,-21.34,-269.33,-4.76,0.22,-3.61,15.06
6567,-24.38,-268.35,-6.21,0.13,-3.59,15.49
6574,-28.41,-266.91,-8.04,-0.05,-3.70,15.96
6577,-31.28,-265.85,-9.17,-0.34,-3.99,16.13
6583,-33.43,-264.96,-9.85,-0.72,-4.41,16.16
6588,-34.79,-264.14,-10.10,-1.10,-4.76,16.10
6595,-35.53,-263.52,-10.25,-1.40,-4.99,16.00
6599,-36.29,-262.15,-10.57,-1.89,-5.22,15.79
6603,-36.72,-260.92,-10.82,-2.23,-5.32,15.61
6608,-37.29,-259.21,-11.25,-2.63,-5.38,15.41
6612,-38.23,-255.18,-12.95,-3.15,-5.36,15.14
6617,-41.89,-239.76,-21.36,-4.29,-4.99,14.71
6624,-43.54,-233.33,-25.49,-4.68,-4.77,14.61
6630,-44.58,-229.32,-28.22,-4.90,-4.61,14.57
6633,-48.51,-216.30,-37.69,-5.73,-4.00,14.40
6638,-51.66,-208.04,-44.15,-6.44,-3.48,14.23
6643,-52.67,-205.59,-45.99,-6.69,-3.32,14.16
6648,-56.73,-197.21,-51.93,-7.78,-2.75,13.79
6653,-58.86,-193.39,-54.34,-8.43,-2.50,13.51
6659,-61.05,-188.27,-56.38,-9.23,-2.28,13.13
6664,-63.75,-179.57,-58.14,-10.51,-2.08,12.43
6668,-64.92,-170.98,-58.43,-11.36,-2.04,11.94
6673,-65.56,-160.28,-58.57,-12.09,-2.02,11.50
6678,-64.97,-139.13,-58.66,-13.11,-1.97,10.93
6683,-64.00,-128.34,-58.71,-13.49,-1.93,10.74
6688,-62.70,-118.85,-58.78,-13.77,-1.88,10.61
6693,-59.06,-102.68,-58.95,-14.19,-1.72,10.42
6698,-54.17,-85.19,-59.06,-14.61,-1.54,10.24
6702,-51.36,-76.35,-59.10,-14.80,-1.45,10.14
6708,-44.15,-52.24,-59.13,-15.46,-1.25,9.54
6712,-39.60,-35.19,-59.08,-16.05,-1.18,8.38
6718,-37.03,-22.58,-59.03,-16.46,-1.18,7.22
6724,-34.10,2.35,-58.92,-17.18,-1.32,5.49
6728,-33.51,12.60,-58.89,-17.31,-1.47,5.47
6733,-33.20,21.48,-58.88,-17.35,-1.61,5.75
6738,-32.99,27.80,-58.97,-17.08,-1.74,6.30
6743,-32.71,36.96,-59.24,-15.85,-1.88,7.41
6748,-32.31,57.28,-60.10,-11.85,-1.52,9.00
6753,-32.13,65.95,-60.50,-9.94,-1.19,9.59
6758,-31.53,78.54,-60.33,-7.54,-0.46,10.31
6763,-30.23,90.22,-58.81,-5.35,0.57,10.88
6768,-28.05,104.09,-56.14,-3.10,1.96,11.63
6773,-16.55,133.29,-43.09,0.46,5.40,13.51
6778,-8.42,148.87,-33.09,1.72,6.88,14.52
6782,5.47,171.78,-14.48,2.78,8.41,15.93
6788,9.58,185.57,-2.40,2.85,8.45,16.22
6793,10.12,193.22,6.23,2.86,7.80,16.24
6798,0.42,197.16,21.14,2.70,4.47,15.74
6803,-1.48,196.79,22.78,2.69,3.77,15.68
6808,-3.97,195.59,24.58,2.69,2.78,15.66
6813,-7.10,192.00,26.54,2.75,1.42,15.70
6818,-13.02,179.90,28.69,2.98,-1.55,15.76
6824,-18.90,150.62,28.24,3.55,-6.02,15.43
6828,-19.43,144.49,27.43,3.63,-6.64,15.23
6833,-15.41,113.78,18.28,3.84,-6.24,14.15
6838,-14.03,105.36,15.32,3.86,-5.89,13.93
6843,-12.07,93.42,11.21,3.88,-5.27,13.62
6848,-9.59,78.74,6.43,3.90,-4.18,13.34
6853,-8.42,71.61,4.28,3.90,-3.58,13.22
6859,-7.46,65.10,2.59,3.91,-3.00,13.05
6863,-5.85,53.51,-0.40,3.91,-1.91,12.55
6868,-4.71,40.52,-1.33,3.92,-0.87,11.38
6875,-4.59,36.72,-1.14,3.92,-0.69,10.79
6879,-5.03,32.58,0.26,3.92,-0.76,10.12
6883,-5.38,30.55,1.13,3.92,-0.85,9.92
6889,-5.72,28.37,1.88,3.92,-0.92,9.78
6893,-6.29,24.62,3.08,3.90,-1.06,9.61
6898,-6.56,20.72,3.87,3.84,-1.15,9.57
6903,-6.59,19.19,4.05,3.80,-1.18,9.57
6909,-6.27,14.47,3.92,3.65,-1.27,9.60
6913,-6.20,13.49,3.79,3.61,-1.28,9.60
6918,-6.15,12.67,3.65,3.59,-1.29,9.61
6923,-6.11,11.33,3.33,3.55,-1.30,9.62
6927,-6.21,9.37,2.81,3.48,-1.30,9.61
6932,-6.34,8.13,2.46,3.43,-1.30,9.59
6938,-6.40,6.91,2.08,3.31,-1.32,9.57
6944,-6.41,6.48,1.94,3.23,-1.34,9.56
6948,-6.40,6.20,1.84,3.15,-1.36,9.55
6952,-6.36,5.91,1.73,3.06,-1.40,9.54
6958,-6.31,5.46,1.62,2.97,-1.46,9.54
6962,-6.27,5.15,1.55,2.91,-1.51,9.53
6968,-6.23,4.71,1.50,2.86,-1.60,9.55
6973,-6.22,4.59,1.49,2.84,-1.64,9.57
6977,-6.18,4.47,1.44,2.79,-1.70,9.60
6982,-6.09,4.36,1.37,2.72,-1.77,9.66
6989,-5.96,4.31,1.28,2.67,-1.82,9.71
6994,-5.83,4.29,1.22,2.64,-1.84,9.74
6998,-4.89,4.24,1.05,2.60,-1.95,9.83
7003,-4.67,4.24,1.05,2.61,-1.97,9.84
7008,-3.11,4.23,1.08,2.63,-2.09,9.86
7012,-1.42,4.25,1.20,2.62,-2.18,9.84
7017,-0.33,4.26,1.29,2.60,-2.23,9.83
7024,0.82,4.27,1.36,2.56,-2.25,9.80
7027,2.37,4.24,1.42,2.46,-2.21,9.76
7032,3.39,4.11,1.41,2.39,-2.10,9.73
7038,3.95,3.87,1.37,2.34,-1.95,9.71
7043,4.05,3.61,1.32,2.32,-1.82,9.70
7047,4.03,3.52,1.30,2.31,-1.78,9.69
7052,3.94,3.41,1.28,2.31,-1.74,9.69
7058,3.67,3.20,1.23,2.32,-1.68,9.69
7063,3.41,2.99,1.16,2.33,-1.66,9.69
7067,3.20,2.84,1.11,2.33,-1.66,9.69
7073,3.04,2.73,1.09,2.32,-1.66,9.69
7077,2.92,2.67,1.08,2.30,-1.67,9.69
7082,2.78,2.59,1.09,2.27,-1.67,9.69
7088,2.46,2.44,1.11,2.19,-1.66,9.67
7093,2.25,2.35,1.12,2.13,-1.64,9.65
7097,2.17,2.32,1.12,2.11,-1.63,9.64
7102,1.95,2.26,1.13,2.07,-1.60,9.62
7107,1.31,2.19,1.11,2.02,-1.51,9.54
7113,0.94,2.19,1.09,2.02,-1.45,9.49
7117,0.55,2.21,1.05,2.03,-1.40,9.45
7123,0.11,2.27,0.99,2.05,-1.34,9.40
7128,-0.15,2.32,0.96,2.06,-1.32,9.37
7132,-0.47,2.40,0.92,2.09,-1.29,9.34
7139,-1.14,2.57,0.86,2.14,-1.26,9.28
7143,-1.81,2.67,0.77,2.19,-1.28,9.23
7147,-1.89,2.67,0.76,2.19,-1.28,9.23
7152,-2.11,2.69,0.72,2.20,-1.31,9.23
7159,-2.45,2.71,0.67,2.22,-1.36,9.29
7163,-3.05,2.73,0.67,2.25,-1.44,9.43
7167,-3.40,2.79,0.68,2.27,-1.50,9.54
7173,-3.62,2.99,0.68,2.30,-1.55,9.61
7177,-3.63,3.07,0.67,2.31,-1.55,9.61
7182,-3.62,3.23,0.63,2.33,-1.57,9.59
7188,-3.56,3.45,0.60,2.35,-1.61,9.55
7193,-3.46,3.75,0.57,2.37,-1.67,9.51
7198,-3.39,3.86,0.59,2.37,-1.70,9.50
7203,-3.29,3.99,0.60,2.38,-1.74,9.48
7208,-3.16,4.10,0.60,2.38,-1.75,9.47
7213,-3.04,4.20,0.60,2.38,-1.74,9.47
7217,-2.98,4.28,0.59,2.37,-1.73,9.46
7222,-2.93,4.45,0.59,2.36,-1.69,9.45
7228,-3.04,4.61,0.62,2.35,-1.66,9.46
7232,-3.20,4.82,0.68,2.34,-1.62,9.50
7238,-3.36,5.05,0.74,2.33,-1.58,9.55
7243,-3.48,5.22,0.78,2.33,-1.55,9.58
7247,-3.57,5.40,0.81,2.32,-1.52,9.60
7252,-3.69,5.69,0.85,2.32,-1.48,9.63
7259,-3.74,5.84,0.86,2.32,-1.47,9.65
7263,-3.79,6.02,0.87,2.32,-1.47,9.67
7268,-3.81,6.19,0.88,2.32,-1.48,9.67
7273,-3.82,6.33,0.88,2.33,-1.50,9.66
7278,-3.83,6.48,0.88,2.34,-1.52,9.63
7283,-3.81,6.87,0.88,2.37,-1.58,9.51
7288,-3.76,7.18,0.90,2.39,-1.64,9.42
7293,-3.64,7.53,0.96,2.41,-1.71,9.34
7298,-3.41,7.88,1.09,2.45,-1.77,9.28
7302,-3.25,8.11,1.19,2.47,-1.80,9.26
7309,-3.13,8.29,1.26,2.49,-1.80,9.25
7313,-2.95,8.58,1.36,2.50,-1.80,9.24
7318,-2.79,9.06,1.40,2.43,-1.76,9.27
7322,-2.72,9.64,1.39,2.29,-1.72,9.32
7327,-2.76,10.01,1.37,2.19,-1.72,9.36
7332,-3.12,10.96,1.28,2.01,-1.71,9.48
7339,-3.45,11.63,1.22,1.95,-1.71,9.53
7344,-3.95,12.57,1.13,1.91,-1.71,9.60
7348,-4.36,13.37,1.05,1.91,-1.70,9.64
7352,-4.51,13.67,1.02,1.92,-1.70,9.65
7358,-5.42,15.48,0.83,1.99,-1.68,9.69
7362,-5.95,16.71,0.73,2.04,-1.68,9.70
7367,-6.69,18.85,0.59,2.13,-1.70,9.68
7373,-7.32,21.28,0.48,2.21,-1.73,9.59
7378,-7.69,23.21,0.43,2.26,-1.76,9.50
7382,-7.94,25.82,0.55,2.30,-1.78,9.35
7387,-7.98,27.18,0.68,2.30,-1.78,9.28
7392,-7.95,28.75,0.89,2.30,-1.78,9.22
7398,-7.65,31.59,1.54,2.29,-1.75,9.14
7403,-7.11,34.98,2.37,2.28,-1.71,9.11
7408,-6.56,38.32,3.22,2.27,-1.69,9.10
7413,-5.85,43.05,4.48,2.27,-1.66,9.14
7417,-5.50,45.40,5.16,2.27,-1.66,9.17
7422,-5.23,47.25,5.75,2.27,-1.66,9.20
7428,-4.77,50.71,6.98,2.27,-1.70,9.26
7432,-4.36,53.36,7.93,2.28,-1.75,9.31
7439,-3.46,58.07,9.92,2.30,-1.93,9.38
7444,-2.71,62.98,11.72,2.33,-2.10,9.43
7448,-2.59,65.22,12.48,2.34,-2.15,9.44
7452,-2.63,68.30,13.40,2.35,-2.20,9.44
7459,-2.73,72.71,14.59,2.35,-2.24,9.45
7463,-2.93,81.78,16.99,2.35,-2.26,9.44
7468,-2.99,85.52,17.89,2.34,-2.27,9.44
7473,-2.86,90.54,19.04,2.33,-2.26,9.44
7478,-2.45,95.76,20.16,2.31,-2.22,9.43
7482,-1.75,103.97,21.42,2.29,-2.13,9.43
7488,-1.08,111.44,22.25,2.27,-2.01,9.42
7493,-0.25,121.97,22.90,2.26,-1.85,9.40
7497,0.26,129.23,23.27,2.25,-1.80,9.39
7503,0.63,136.57,23.65,2.25,-1.79,9.36
7508,0.70,139.55,23.80,2.25,-1.79,9.35
7513,0.51,147.20,24.23,2.27,-1.79,9.32
7518,-0.95,160.05,25.14,2.38,-1.79,9.27
7524,-2.42,166.26,25.87,2.48,-1.76,9.24
7527,-5.45,175.06,27.43,2.67,-1.72,9.21
7532,-8.31,181.64,29.25,2.79,-1.74,9.22
7539,-13.62,191.75,33.51,2.97,-1.87,9.34
7544,-15.88,197.61,36.04,3.01,-2.01,9.55
7547,-17.51,200.78,37.87,2.92,-2.16,9.88
7552,-18.36,203.03,39.17,2.80,-2.27,10.18
7558,-18.91,205.65,40.45,2.69,-2.36,10.46
7563,-19.57,211.60,42.88,2.49,-2.53,11.04
7568,-20.12,228.68,49.44,1.90,-2.86,12.83
7574,-19.46,242.67,55.13,1.51,-3.00,14.00
7578,-17.45,264.88,65.10,0.98,-3.10,15.54
7582,-15.69,275.65,71.12,0.77,-3.10,16.10
7589,-13.78,282.62,75.97,0.67,-3.10,16.35
7593,-12.41,285.63,78.65,0.64,-3.15,16.41
7598,-7.55,289.30,84.31,0.74,-3.33,16.43
7602,-1.49,284.85,86.65,1.32,-3.28,16.26
7608,2.04,279.24,86.73,1.80,-3.07,16.21
7613,6.52,267.46,86.75,2.60,-2.64,16.18
7618,10.75,250.02,86.99,3.69,-2.43,16.23
7624,14.36,225.52,87.41,5.10,-2.35,16.34
7628,16.11,203.61,88.23,6.34,-2.49,16.43
7632,17.26,177.05,89.75,7.79,-2.76,16.54
7638,17.53,144.42,91.90,9.29,-2.99,16.55
7642,17.56,113.31,94.19,10.38,-3.15,16.36
7647,17.43,96.37,95.49,10.75,-3.18,16.15
7652,16.97,62.60,98.21,11.10,-3.14,15.05
7658,17.08,40.00,99.90,10.90,-3.05,13.90
7663,18.13,12.80,101.77,10.45,-2.90,11.92
7667,20.19,-4.40,102.21,9.96,-2.79,10.34
7672,22.87,-16.31,101.27,9.47,-2.71,9.04
7678,24.69,-22.60,100.03,9.20,-2.68,8.39
7682,28.10,-33.21,94.80,8.76,-2.66,7.49
7688,29.09,-39.83,89.94,8.54,-2.67,7.24
7692,29.43,-47.74,82.67,8.31,-2.70,7.09
7697,29.02,-53.30,77.94,8.17,-2.71,7.10
7703,25.91,-62.80,69.69,7.97,-2.73,7.20
7708,22.73,-71.56,62.62,7.77,-2.73,7.29
7713,18.39,-82.93,53.75,7.51,-2.74,7.40
7718,14.64,-93.26,45.72,7.28,-2.74,7.47
7722,12.36,-99.84,40.61,7.14,-2.74,7.52
7727,10.25,-106.51,35.33,6.98,-2.73,7.60
7733,7.31,-116.24,27.65,6.75,-2.73,7.82
7739,5.75,-121.50,23.64,6.62,-2.73,8.02
7743,3.35,-129.85,17.46,6.39,-2.72,8.45
7748,0.17,-140.80,10.31,6.11,-2.70,9.04
7752,-2.12,-149.09,5.47,5.89,-2.67,9.44
7758,-3.72,-155.47,2.05,5.71,-2.66,9.67
7763,-6.29,-166.95,-3.68,5.39,-2.63,9.95
7767,-7.59,-174.73,-7.55,5.15,-2.61,10.03
7773,-9.02,-186.30,-13.14,4.78,-2.59,10.10
7778,-9.84,-198.85,-19.41,4.37,-2.54,10.09
7782,-9.95,-203.13,-21.45,4.23,-2.52,10.07
7788,-10.00,-207.58,-23.42,4.08,-2.50,10.05
7793,-10.05,-214.63,-26.56,3.86,-2.46,10.00
7798,-10.05,-218.66,-28.14,3.74,-2.44,9.98
7803,-10.01,-228.44,-30.91,3.47,-2.36,9.93
7808,-10.16,-234.10,-31.76,3.35,-2.33,10.01
7813,-10.34,-236.36,-31.89,3.31,-2.34,10.12
7817,-10.54,-238.39,-31.89,3.28,-2.35,10.24
7823,-11.28,-241.68,-31.85,3.24,-2.46,10.65
7828,-13.19,-247.38,-31.89,3.12,-2.75,11.56
7832,-14.53,-250.72,-31.94,3.02,-2.95,12.11
7838,-16.95,-256.12,-32.41,2.82,-3.23,12.82
7843,-18.22,-258.80,-32.87,2.71,-3.37,13.12
7848,-19.76,-261.93,-33.42,2.58,-3.52,13.39
7852,-22.56,-267.12,-34.84,2.36,-3.75,13.73
7858,-25.82,-272.49,-36.97,2.09,-4.07,14.15
7863,-28.40,-276.31,-39.01,1.84,-4.37,14.52
7867,-31.01,-279.52,-41.62,1.41,-4.85,15.17
7873,-32.11,-280.59,-43.25,1.13,-5.13,15.56
7878,-32.95,-281.24,-44.96,0.81,-5.41,15.94
7883,-33.66,-281.72,-46.77,0.45,-5.66,16.29
7888,-34.35,-281.80,-50.02,-0.17,-5.94,16.65
7893,-34.64,-281.64,-52.29,-0.60,-6.06,16.79
7897,-35.12,-281.19,-55.35,-1.20,-6.15,16.86
7902,-35.99,-279.65,-59.47,-2.06,-6.18,16.88
7909,-37.32,-277.18,-63.16,-2.86,-6.14,16.83
7913,-39.10,-273.46,-66.33,-3.59,-6.05,16.76
7917,-40.45,-270.24,-68.23,-4.03,-5.94,16.70
7924,-42.52,-264.97,-70.53,-4.61,-5.72,16.60
7927,-44.29,-260.24,-71.93,-5.09,-5.48,16.52
7932,-47.62,-251.04,-73.31,-5.92,-4.88,16.37
7939,-49.10,-247.24,-73.44,-6.30,-4.60,16.30
7943,-53.64,-236.26,-72.99,-7.38,-3.81,16.06
7947,-57.84,-226.92,-71.41,-8.28,-3.23,15.75
7952,-60.23,-221.62,-70.06,-8.79,-2.94,15.51
7958,-63.34,-214.04,-67.83,-9.48,-2.60,15.12
7963,-68.19,-200.66,-63.03,-10.66,-2.14,14.25
7968,-70.50,-192.40,-59.90,-11.47,-1.85,13.66
7973,-72.92,-175.13,-53.88,-13.18,-1.26,12.52
7978,-72.51,-169.23,-52.20,-13.73,-1.05,12.23
7983,-71.70,-163.34,-50.73,-14.17,-0.86,12.05
7989,-70.42,-156.38,-49.28,-14.56,-0.69,11.94
7993,-64.77,-137.94,-46.35,-15.25,-0.37,11.80
7998,-57.17,-117.64,-43.44,-15.73,-0.16,11.78
8003,-50.30,-100.72,-41.14,-16.00,-0.06,11.77
8008,-41.36,-79.53,-38.00,-16.22,0.01,11.75
8013,-31.65,-56.53,-34.27,-16.36,-0.00,11.69
8017,-28.45,-48.30,-32.70,-16.39,-0.04,11.64
8023,-23.47,-35.13,-30.16,-16.43,-0.17,11.49
8028,-16.84,-18.44,-27.48,-16.47,-0.48,11.22
8032,-7.39,7.62,-25.62,-16.47,-1.07,10.51
8038,0.63,31.81,-25.46,-16.23,-1.48,9.40
8042,15.17,72.96,-28.27,-13.18,-1.77,6.57
8047,21.69,85.56,-30.68,-10.97,-1.62,5.49
8052,26.35,93.21,-32.63,-9.19,-1.38,4.80
8058,31.54,100.40,-34.53,-7.14,-1.03,4.22
8063,39.35,108.91,-36.57,-3.81,0.10,3.75
8067,43.81,114.92,-36.44,-1.69,1.18,3.89
8072,47.03,121.83,-32.16,0.22,2.87,4.63
8077,49.61,132.88,-22.69,1.84,5.03,6.10
8083,47.53,143.21,-13.46,2.46,6.07,7.49
8088,46.13,146.67,-10.42,2.56,6.10,7.98
8093,38.05,160.97,1.37,2.74,5.61,10.16
8097,26.23,172.54,13.38,2.64,4.02,12.78
8103,22.25,173.93,16.40,2.55,2.98,13.59
8108,21.13,173.82,17.25,2.52,2.58,13.83
8113,17.86,171.60,19.53,2.42,1.22,14.52
8118,13.94,165.20,20.70,2.35,-0.91,15.00
8124,12.91,162.30,20.84,2.33,-1.60,15.10
8128,8.45,143.96,19.47,2.32,-4.61,15.46
8133,6.57,131.96,17.66,2.33,-5.90,15.61
8139,5.78,122.86,15.67,2.34,-6.52,15.79
8144,5.10,113.16,12.91,2.35,-6.82,16.01
8148,4.04,93.23,7.08,2.37,-5.99,16.50
8153,3.80,87.61,5.16,2.37,-5.56,16.69
8160,2.47,71.60,0.99,2.38,-3.58,16.84
8163,0.86,64.51,0.38,2.39,-2.17,16.42
8168,-0.51,61.51,1.25,2.42,-1.57,15.81
8173,-2.55,57.95,3.17,2.51,-1.07,14.76
8178,-4.44,54.21,4.90,2.61,-0.90,13.86
8183,-5.84,51.47,6.22,2.72,-0.81,13.22
8189,-10.39,41.71,9.92,3.07,-0.89,11.51
8194,-13.02,35.50,11.59,3.25,-0.98,10.77
8198,-15.59,29.63,12.84,3.38,-1.02,10.25
8203,-17.61,25.06,13.59,3.43,-1.02,10.00
8210,-18.98,22.08,13.93,3.40,-0.93,9.97
8213,-19.41,20.92,13.99,3.36,-0.88,9.99
8218,-19.57,20.15,13.74,3.30,-0.83,10.08
8224,-19.48,19.75,13.47,3.27,-0.81,10.12
8228,-18.89,18.67,12.48,3.23,-0.78,10.14
8233,-18.25,17.76,11.42,3.21,-0.76,10.13
8240,-17.56,16.61,10.26,3.20,-0.76,10.09
8244,-16.86,15.30,9.05,3.20,-0.75,9.99
8248,-15.34,11.78,5.77,3.22,-0.75,9.66
8253,-14.56,10.37,4.39,3.22,-0.75,9.52
8259,-14.32,9.50,3.27,3.23,-0.75,9.43
8263,-13.99,9.16,2.93,3.24,-0.75,9.39
8268,-11.54,7.88,1.81,3.24,-0.93,9.26
8274,-10.74,7.59,1.69,3.24,-1.03,9.22
8278,-10.23,7.43,1.63,3.24,-1.10,9.19
8283,-9.53,7.23,1.58,3.24,-1.19,9.16
8288,-8.22,6.93,1.56,3.24,-1.34,9.11
8293,-7.70,6.79,1.56,3.24,-1.40,9.08
8297,-6.70,6.55,1.57,3.24,-1.51,9.04
8304,-6.01,6.42,1.60,3.24,-1.56,9.02
8308,-3.32,6.02,1.73,3.23,-1.68,8.96
8312,-2.44,5.92,1.78,3.23,-1.70,8.95
8317,-1.12,5.79,1.87,3.23,-1.71,8.94
8322,0.69,5.66,2.03,3.23,-1.70,8.98
8328,2.45,5.59,2.22,3.22,-1.68,9.08
8332,3.09,5.57,2.31,3.22,-1.67,9.14
8339,4.33,5.58,2.55,3.22,-1.64,9.29
8343,4.73,5.60,2.67,3.22,-1.62,9.37
8347,4.94,5.65,2.79,3.22,-1.60,9.43
8352,5.06,5.75,2.93,3.22,-1.58,9.48
8357,4.86,5.86,2.95,3.17,-1.57,9.53
8363,4.62,5.92,2.91,3.09,-1.56,9.55
8367,4.48,5.93,2.87,3.03,-1.56,9.56
8373,4.26,5.95,2.81,2.94,-1.54,9.56
8378,4.08,5.97,2.78,2.88,-1.52,9.55
8382,3.84,6.00,2.74,2.79,-1.48,9.51
8389,3.37,6.10,2.72,2.68,-1.41,9.44
8393,3.12,6.17,2.73,2.65,-1.38,9.42
8397,2.89,6.19,2.75,2.62,-1.38,9.42
8403,2.51,6.23,2.79,2.57,-1.40,9.45
8408,2.42,6.24,2.79,2.55,-1.41,9.46
8412,2.00,6.31,2.82,2.46,-1.42,9.49
8418,1.89,6.34,2.83,2.44,-1.43,9.51
8423,1.92,6.34,2.83,2.45,-1.43,9.53
8427,2.02,6.33,2.83,2.47,-1.43,9.53
8432,2.20,6.30,2.83,2.51,-1.42,9.53
8438,2.55,6.19,2.81,2.57,-1.41,9.49
8442,2.28,6.03,2.81,2.50,-1.39,9.41
8447,2.23,5.91,2.82,2.47,-1.38,9.39
8453,1.89,5.16,2.70,2.34,-1.47,9.38
8458,1.74,4.92,2.61,2.32,-1.51,9.39
8466,1.55,4.64,2.47,2.30,-1.55,9.41
8471,1.41,4.43,2.35,2.29,-1.58,9.42
8474,1.23,4.15,2.17,2.27,-1.61,9.43
8478,0.92,3.71,1.85,2.26,-1.66,9.46
8483,0.44,3.22,1.45,2.27,-1.78,9.52
8487,-0.62,3.17,1.31,2.44,-1.71,9.56
8493,-0.86,3.21,1.28,2.53,-1.67,9.56
8497,-1.24,3.26,1.14,2.61,-1.64,9.56
8503,-1.76,3.40,0.96,2.53,-1.63,9.56
8508,-1.94,3.50,0.92,2.49,-1.63,9.56
8513,-2.17,3.63,0.86,2.44,-1.63,9.55
8517,-2.44,3.78,0.80,2.40,-1.63,9.54
8523,-2.85,4.01,0.73,2.36,-1.63,9.52
8528,-3.28,4.22,0.66,2.33,-1.63,9.52
8532,-3.88,4.57,0.59,2.31,-1.63,9.51
8539,-4.43,5.02,0.55,2.29,-1.66,9.51
8543,-4.89,5.70,0.55,2.28,-1.68,9.48
8548,-4.97,5.99,0.56,2.28,-1.68,9.46
8554,-5.04,6.35,0.58,2.28,-1.67,9.43
8559,-5.08,6.67,0.60,2.29,-1.65,9.40
8563,-5.13,7.43,0.65,2.32,-1.59,9.36
8568,-5.16,7.73,0.66,2.34,-1.57,9.36
8574,-5.23,8.34,0.67,2.38,-1.51,9.34
8578,-5.31,8.80,0.63,2.42,-1.48,9.30
8583,-5.47,9.48,0.54,2.45,-1.44,9.25
8589,-5.68,10.09,0.43,2.44,-1.41,9.22
8594,-6.05,10.93,0.26,2.40,-1.37,9.22
8598,-7.01,12.56,-0.14,2.29,-1.34,9.26
8603,-8.43,14.64,-0.72,2.22,-1.32,9.34
8607,-8.81,15.21,-0.86,2.21,-1.32,9.36
8612,-9.35,15.92,-1.06,2.21,-1.32,9.38
8617,-10.55,18.03,-1.39,2.23,-1.36,9.42
8624,-11.39,20.44,-1.57,2.26,-1.40,9.45
8628,-11.70,23.93,-1.58,2.33,-1.44,9.46
8632,-11.57,26.09,-1.39,2.33,-1.45,9.45
8638,-11.40,27.50,-1.15,2.30,-1.46,9.45
8642,-10.71,33.53,0.39,2.02,-1.45,9.39
8647,-10.41,37.35,1.66,1.88,-1.41,9.40
8654,-10.23,39.02,2.23,1.88,-1.38,9.43
8658,-9.79,42.15,3.38,1.97,-1.26,9.64
8662,-9.60,43.01,3.65,2.00,-1.23,9.72
8667,-9.17,44.34,4.05,2.05,-1.18,9.90
8673,-8.60,45.83,4.41,2.11,-1.15,10.13
8678,-8.04,47.64,4.74,2.15,-1.19,10.33
8682,-7.48,49.87,5.13,2.20,-1.31,10.52
8688,-7.41,52.04,5.49,2.27,-1.48,10.56
8693,-7.50,53.09,5.67,2.30,-1.58,10.55
8697,-7.62,53.98,5.82,2.33,-1.67,10.54
8703,-7.75,54.68,5.94,2.35,-1.73,10.53
8708,-7.84,55.08,6.00,2.36,-1.77,10.51
8713,-8.17,56.17,6.18,2.40,-1.86,10.46
8718,-9.58,58.44,6.55,2.46,-2.08,10.20
8723,-12.72,64.51,7.46,2.46,-2.32,9.61
8728,-13.54,67.87,7.99,2.45,-2.35,9.43
8733,-13.91,71.06,8.52,2.44,-2.36,9.31
8739,-13.82,75.11,9.29,2.45,-2.35,9.24
8743,-13.65,76.35,9.55,2.47,-2.35,9.22
8748,-13.01,79.30,10.23,2.52,-2.33,9.19
8753,-11.80,83.89,11.36,2.60,-2.30,9.18
8758,-10.85,87.51,12.26,2.66,-2.28,9.18
8763,-9.24,95.99,13.89,2.73,-2.23,9.19
8768,-8.64,100.34,14.54,2.74,-2.20,9.20
8774,-7.77,109.06,15.67,2.76,-2.15,9.21
8778,-6.89,134.24,19.05,2.80,-1.97,9.21
8783,-7.16,139.09,20.00,2.82,-1.90,9.20
8789,-8.16,148.65,22.21,2.89,-1.70,9.17
8794,-10.05,158.12,25.14,2.95,-1.44,9.17
8798,-13.36,167.54,28.89,2.99,-1.13,9.25
8803,-15.35,171.83,30.95,2.98,-1.04,9.32
8809,-17.88,175.99,33.32,2.83,-1.02,9.49
8813,-21.99,182.17,36.89,2.39,-1.15,10.02
8818,-24.77,186.13,39.04,1.78,-1.59,11.03
8825,-25.87,189.55,40.62,1.42,-1.94,11.98
8829,-26.72,195.53,42.83,1.02,-2.43,13.57
8833,-26.92,203.47,46.12,0.79,-2.84,14.98
8839,-26.92,210.95,50.00,0.68,-3.10,15.89
8844,-25.37,249.42,72.52,0.50,-3.40,17.27
8848,-24.92,253.88,75.31,0.48,-3.38,17.21
8854,-24.42,257.68,77.73,0.46,-3.35,17.12
8859,-23.50,262.77,81.17,0.43,-3.31,16.93
8863,-21.90,268.48,85.54,0.39,-3.28,16.62
8868,-17.81,274.52,91.26,0.31,-3.28,16.00
8875,-10.88,273.15,94.01,0.36,-3.11,15.55
8879,-9.31,271.63,94.03,0.39,-3.05,15.53
8883,-6.93,267.91,93.90,0.48,-2.93,15.53
8888,-3.76,260.85,93.28,0.67,-2.80,15.57
8893,0.09,246.57,91.30,1.22,-2.69,15.76
8898,3.14,229.80,88.71,2.01,-2.64,15.99
8903,4.65,214.91,86.11,2.96,-2.63,16.20
8909,5.69,200.52,83.42,4.01,-2.65,16.31
8913,6.79,188.25,81.24,4.83,-2.68,16.33
8918,8.84,163.42,77.09,6.59,-2.72,15.98
8923,12.47,133.08,73.03,8.13,-2.77,15.02
8928,18.31,99.09,69.49,9.21,-2.80,13.18
8933,22.70,73.59,67.47,9.56,-2.80,11.75
8939,26.16,51.84,65.82,9.65,-2.79,10.52
8943,27.74,38.80,64.64,9.61,-2.77,9.89
8948,29.32,22.44,62.98,9.51,-2.71,9.17
8953,29.89,8.35,60.78,9.33,-2.62,8.65
8958,30.05,0.97,59.24,9.20,-2.54,8.41
8963,29.82,-13.51,55.49,8.90,-2.35,8.09
8968,29.57,-17.91,54.14,8.80,-2.28,8.03
8974,29.12,-24.37,52.33,8.64,-2.21,8.01
8978,28.19,-30.93,50.76,8.46,-2.15,8.01
8983,26.62,-39.19,48.87,8.24,-2.12,8.03
8989,22.68,-54.41,45.81,7.81,-2.10,8.08
8994,20.35,-63.35,43.73,7.61,-2.09,8.09
8998,19.73,-64.97,43.32,7.59,-2.09,8.08
9004,19.12,-66.93,42.84,7.55,-2.10,8.08
9011,13.74,-89.18,36.97,7.04,-2.18,8.23
9014,10.75,-103.59,32.68,6.68,-2.29,8.50
9018,9.76,-108.85,31.07,6.53,-2.35,8.65
9024,6.86,-126.31,25.49,6.07,-2.55,9.20
9028,5.63,-134.36,22.83,5.88,-2.64,9.43
9033,4.39,-143.34,19.66,5.69,-2.72,9.60
9038,3.01,-154.42,15.35,5.48,-2.74,9.75
9043,1.51,-165.99,10.43,5.23,-2.67,9.79
9048,-0.37,-179.33,4.05,4.89,-2.52,9.81
9054,-1.88,-187.64,-0.29,4.63,-2.36,9.79
9059,-3.31,-195.13,-4.28,4.39,-2.19,9.77
9063,-3.98,-198.23,-5.91,4.29,-2.12,9.76
9068,-5.77,-204.92,-9.47,4.06,-1.97,9.77
9073,-6.84,-208.48,-11.33,3.95,-1.88,9.78
9078,-12.51,-225.08,-19.06,3.50,-1.58,10.09
9083,-15.00,-231.95,-21.41,3.36,-1.47,10.47
9089,-16.55,-236.61,-22.53,3.28,-1.39,10.78
9094,-17.83,-241.22,-23.22,3.19,-1.27,11.16
9098,-19.30,-246.69,-23.97,3.09,-1.12,11.69
9104,-21.18,-255.77,-24.56,2.87,-0.83,12.71
9109,-21.73,-259.70,-24.61,2.75,-0.70,13.18
9113,-22.07,-265.74,-23.93,2.53,-0.57,13.79
9118,-22.10,-268.41,-23.25,2.42,-0.53,14.04
9125,-22.08,-272.07,-22.31,2.28,-0.50,14.33
9128,-21.45,-280.20,-18.70,1.95,-0.47,14.84
9133,-20.95,-283.45,-16.94,1.81,-0.47,15.03
9139,-18.57,-292.11,-11.20,1.39,-0.50,15.50
9144,-16.16,-296.29,-7.28,1.10,-0.68,15.77
9148,-14.89,-297.59,-5.56,0.92,-0.87,15.93
9155,-13.70,-298.42,-4.08,0.71,-1.19,16.12
9160,-12.20,-299.20,-2.27,0.33,-2.02,16.41
9164,-11.43,-298.97,-1.43,-0.23,-3.28,16.69
9168,-11.28,-298.63,-1.28,-0.56,-3.99,16.79
9173,-11.52,-297.78,-1.82,-1.01,-4.84,16.83
9178,-12.64,-295.62,-4.14,-1.68,-5.95,16.72
9183,-14.91,-291.56,-9.38,-2.47,-6.89,16.43
9189,-17.96,-286.17,-16.69,-3.18,-7.53,16.12
9193,-22.23,-278.64,-27.02,-3.90,-7.98,15.80
9198,-26.13,-272.19,-35.79,-4.37,-8.16,15.59
9203,-30.77,-264.97,-45.50,-4.79,-8.21,15.45
9207,-38.08,-254.22,-59.69,-5.32,-8.19,15.33
9213,-52.05,-236.44,-81.97,-6.20,-7.59,15.28
9218,-62.19,-223.23,-96.29,-7.03,-6.58,15.30
9224,-69.31,-211.99,-105.93,-7.84,-5.54,15.31
9229,-72.13,-206.12,-109.82,-8.28,-4.94,15.29
9233,-75.13,-196.60,-114.06,-9.01,-4.03,15.23
9238,-76.98,-178.11,-117.30,-10.38,-2.68,14.73
9243,-76.98,-174.07,-117.43,-10.68,-2.45,14.59
9248,-76.64,-166.20,-117.33,-11.27,-2.06,14.24
9253,-75.03,-152.56,-115.96,-12.23,-1.51,13.58
9258,-72.26,-139.19,-113.35,-13.09,-1.10,13.03
9263,-67.31,-120.63,-108.41,-14.11,-0.69,12.42
9268,-62.41,-106.35,-103.01,-14.75,-0.45,12.11
9273,-59.35,-98.00,-99.38,-15.03,-0.33,12.01
9278,-54.60,-84.86,-93.20,-15.34,-0.18,11.94
9283,-47.55,-66.31,-82.54,-15.64,0.01,11.90
9288,-41.36,-48.95,-71.27,-15.69,0.13,11.94
9294,-38.18,-39.70,-64.79,-15.68,0.18,11.96
9298,-34.82,-29.10,-56.90,-15.60,0.21,11.95
9303,-32.13,-20.63,-50.57,-15.47,0.20,11.91
9308,-29.63,-13.55,-45.27,-15.33,0.15,11.80
9313,-25.79,-3.57,-38.45,-15.02,-0.02,11.41
9318,-20.62,7.62,-34.44,-14.55,-0.33,10.78
9324,-17.33,14.89,-33.31,-14.19,-0.54,10.33
9328,-14.34,22.38,-32.83,-13.71,-0.73,9.93
9333,-10.09,34.24,-32.67,-12.46,-0.95,9.34
9339,-6.26,46.20,-33.29,-10.75,-0.99,8.66
9343,0.12,74.04,-34.93,-4.39,-0.65,6.74
9348,2.47,85.99,-35.86,-0.13,0.05,5.53
9354,3.96,93.56,-36.30,2.27,0.60,4.83
9358,5.42,100.08,-36.27,4.07,1.08,4.29
9363,8.03,111.29,-34.13,6.52,1.92,3.80
9368,10.15,123.89,-30.61,7.51,2.50,4.03
9374,12.86,145.09,-23.27,8.05,3.09,5.48
9378,14.88,171.13,-12.73,7.08,3.49,9.32
9383,15.39,182.56,-7.36,6.15,3.58,11.86
9388,15.53,188.81,-4.42,5.49,3.61,13.59
9393,15.63,193.41,-0.96,4.39,3.63,16.11
9398,15.60,191.67,1.92,3.74,3.64,17.30
9404,15.34,184.42,7.15,2.79,3.62,18.51
9410,13.81,173.14,13.00,2.51,3.18,17.62
9414,12.43,167.17,15.93,2.48,2.73,16.92
9418,10.76,162.63,18.47,2.50,2.18,16.29
9424,7.91,157.44,21.36,2.53,1.14,15.37
9428,5.54,153.12,23.06,2.58,0.18,14.75
9433,1.30,146.74,24.72,2.66,-1.63,13.96
9439,-2.91,134.02,22.81,2.70,-4.16,13.60
9443,-3.52,126.86,19.82,2.70,-4.89,13.62
9448,-3.32,120.51,17.05,2.69,-5.19,13.72
9454,-2.36,112.95,13.15,2.68,-5.27,13.89
9458,-0.56,99.97,8.10,2.68,-4.86,14.03
9462,1.22,85.18,3.54,2.72,-4.27,14.05
9468,3.17,58.53,-0.71,2.89,-2.82,13.40
9473,3.37,50.88,-0.90,2.98,-2.38,12.81
9477,3.07,47.88,-0.46,3.02,-2.17,12.41
9483,2.40,42.50,0.50,3.09,-1.94,11.86
9488,1.10,34.63,2.11,3.19,-1.71,11.01
9493,0.27,28.90,2.85,3.25,-1.61,10.69
9498,-0.29,24.26,3.08,3.32,-1.50,10.55
9503,-0.48,22.54,3.12,3.35,-1.45,10.52
9509,-0.96,18.10,3.11,3.43,-1.31,10.42
9513,-1.30,14.75,2.91,3.49,-1.20,10.34
9518,-1.78,10.77,2.46,3.56,-1.06,10.22
9523,-2.62,7.47,1.84,3.60,-0.98,10.02
9528,-3.31,5.87,1.49,3.60,-0.96,9.88
9533,-4.16,4.66,1.18,3.58,-0.96,9.76
9539,-5.48,3.42,0.84,3.53,-1.02,9.61
9543,-7.04,2.33,0.55,3.41,-1.23,9.51
9548,-7.36,2.14,0.49,3.38,-1.31,9.50
9553,-7.67,1.95,0.43,3.33,-1.41,9.50
9558,-8.05,1.67,0.31,3.24,-1.61,9.50
9563,-8.15,1.58,0.26,3.19,-1.69,9.51
9568,-8.21,1.42,0.18,3.11,-1.78,9.52
9573,-8.07,1.21,0.10,3.05,-1.79,9.49
9578,-7.98,1.09,0.07,3.04,-1.76,9.47
9583,-7.90,0.98,0.05,3.03,-1.75,9.46
9589,-7.68,0.68,0.00,3.02,-1.69,9.43
9592,-7.54,0.50,-0.01,3.02,-1.67,9.41
9598,-7.12,0.02,-0.03,3.02,-1.58,9.37
9603,-6.81,-0.14,-0.02,3.01,-1.53,9.36
9608,-6.62,-0.10,0.01,2.97,-1.49,9.36
9613,-6.47,-0.03,0.06,2.92,-1.47,9.35
9618,-6.35,0.08,0.15,2.85,-1.46,9.35
9623,-6.21,0.28,0.34,2.72,-1.47,9.35
9628,-6.08,0.46,0.55,2.59,-1.51,9.36
9632,-6.00,0.56,0.65,2.53,-1.53,9.36
9638,-5.87,0.69,0.73,2.47,-1.53,9.35
9643,-5.78,0.76,0.75,2.44,-1.53,9.34
9648,-5.64,0.90,0.75,2.42,-1.53,9.31
9654,-5.35,1.23,0.71,2.40,-1.49,9.25
9658,-5.14,1.50,0.65,2.40,-1.50,9.19
9662,-4.88,1.82,0.57,2.41,-1.52,9.12
9668,-4.61,2.08,0.47,2.42,-1.57,9.03
9673,-4.47,2.21,0.42,2.42,-1.60,8.98
9678,-4.33,2.35,0.38,2.42,-1.63,8.94
9683,-4.16,2.55,0.35,2.42,-1.66,8.89
9688,-3.98,2.93,0.34,2.42,-1.68,8.87
9693,-3.85,3.57,0.35,2.41,-1.70,8.87
9698,-3.84,4.40,0.41,2.44,-1.70,8.91
9704,-3.85,4.83,0.45,2.46,-1.70,8.94
9709,-3.88,5.29,0.48,2.50,-1.69,8.96
9713,-3.96,5.93,0.53,2.57,-1.68,8.99
9719,-4.06,6.41,0.60,2.61,-1.64,9.00
9726,-4.20,6.81,0.69,2.65,-1.58,9.01
9729,-4.45,7.32,0.84,2.70,-1.43,9.01
9733,-4.57,7.53,0.91,2.71,-1.36,9.01
9739,-4.78,7.86,1.02,2.74,-1.24,8.92
9743,-5.25,8.46,1.23,2.76,-1.00,8.47
9748,-5.75,8.96,1.46,2.76,-0.78,7.98
9754,-6.42,9.52,1.76,2.76,-0.51,7.41
9759,-7.00,9.92,2.02,2.75,-0.29,7.28
9763,-7.48,10.19,2.23,2.74,-0.13,7.34
9768,-7.79,10.32,2.36,2.73,-0.06,7.55
9774,-8.16,10.40,2.52,2.71,-0.06,8.18
9778,-8.22,10.34,2.54,2.68,-0.19,8.57
9783,-8.21,10.19,2.55,2.62,-0.50,9.03
9789,-8.05,10.00,2.51,2.58,-0.84,9.28
9794,-7.80,9.80,2.45,2.55,-1.18,9.40
9798,-7.66,9.69,2.42,2.54,-1.33,9.43
9803,-7.32,9.49,2.37,2.54,-1.58,9.46
9808,-7.04,9.37,2.34,2.55,-1.68,9.45
9813,-6.51,9.21,2.31,2.57,-1.78,9.41
9819,-5.99,9.08,2.26,2.59,-1.78,9.38
9824,-5.49,8.95,2.17,2.60,-1.72,9.37
9828,-5.25,8.86,2.10,2.61,-1.68,9.37
9833,-4.80,8.66,1.90,2.62,-1.56,9.40
9838,-4.54,8.51,1.75,2.62,-1.47,9.42
9843,-4.39,8.40,1.62,2.63,-1.41,9.45
9848,-4.30,8.34,1.53,2.63,-1.41,9.47
9853,-4.23,8.33,1.49,2.63,-1.45,9.48
9858,-4.18,8.35,1.49,2.63,-1.48,9.48
9863,-4.07,8.41,1.50,2.63,-1.58,9.47
9869,-3.95,8.45,1.49,2.62,-1.62,9.45
9874,-3.72,8.48,1.45,2.60,-1.66,9.39
9878,-3.57,8.49,1.42,2.58,-1.67,9.33
9883,-3.41,8.51,1.37,2.53,-1.67,9.24
9888,-3.35,8.52,1.35,2.51,-1.66,9.20
9892,-3.28,8.55,1.32,2.47,-1.66,9.14
9898,-3.26,8.62,1.30,2.44,-1.66,9.12
9903,-3.26,8.71,1.29,2.42,-1.66,9.13
9908,-3.27,8.82,1.27,2.41,-1.66,9.15
9913,-3.28,9.07,1.24,2.40,-1.66,9.19
9918,-3.29,9.28,1.21,2.40,-1.66,9.22
9923,-3.30,9.64,1.17,2.39,-1.66,9.27
9928,-3.31,10.20,1.11,2.35,-1.67,9.34
9933,-3.31,10.54,1.07,2.32,-1.67,9.38
9938,-3.32,10.85,1.04,2.29,-1.68,9.41
9943,-3.42,11.53,0.99,2.21,-1.70,9.48
9948,-3.58,12.07,0.95,2.14,-1.72,9.53
9953,-3.74,12.43,0.93,2.10,-1.74,9.56
9958,-3.95,12.83,0.92,2.06,-1.77,9.59
9963,-4.15,13.10,0.91,2.03,-1.79,9.60
9968,-4.29,13.25,0.90,2.02,-1.79,9.61
9973,-4.70,13.76,0.88,2.00,-1.82,9.61
9977,-5.40,15.08,0.88,2.00,-1.83,9.59
9983,-5.51,15.41,0.90,2.00,-1.83,9.58
9988,-5.62,16.12,0.97,2.00,-1.83,9.55
9993,-5.62,16.49,1.01,2.00,-1.83,9.53
9998,-5.58,17.15,1.09,2.01,-1.82,9.50
10003,-5.47,17.97,1.22,2.04,-1.80,9.43
10008,-5.18,19.49,1.50,2.11,-1.75,9.32
10013,-4.99,20.47,1.69,2.17,-1.70,9.26
10018,-4.66,22.15,2.05,2.26,-1.61,9.15
10023,-4.34,23.69,2.36,2.33,-1.53,9.04
10028,-4.26,24.01,2.43,2.34,-1.51,9.01
10033,-4.07,24.87,2.58,2.37,-1.47,8.94
10038,-3.83,26.34,2.73,2.40,-1.43,8.87
10043,-3.49,28.99,2.89,2.44,-1.44,8.79
10048,-3.34,30.52,3.03,2.47,-1.46,8.76
10053,-2.85,36.96,3.79,2.58,-1.60,8.68
10058,-2.41,42.35,4.87,2.68,-1.80,8.68
10062,-1.93,47.77,6.52,2.78,-2.05,8.74
10068,-1.21,53.90,9.31,2.88,-2.35,8.89
10073,-0.64,58.75,11.80,2.95,-2.53,9.02
10078,-0.42,60.55,12.80,2.97,-2.59,9.07
10083,-0.01,65.31,15.26,2.98,-2.65,9.18
10088,0.23,71.74,17.72,2.93,-2.62,9.23
10093,0.38,82.02,20.43,2.82,-2.55,9.24
10098,0.44,86.39,21.36,2.78,-2.52,9.23
10103,0.55,91.53,22.37,2.75,-2.50,9.22
10108,0.85,102.21,24.14,2.72,-2.47,9.16
10113,1.06,108.38,24.98,2.72,-2.44,9.11
10118,1.36,116.35,25.92,2.74,-2.40,9.03
10123,1.73,129.26,26.90,2.76,-2.32,8.91
10128,1.81,133.07,27.09,2.77,-2.30,8.88
10133,1.92,139.83,27.33,2.78,-2.30,8.85
10139,1.96,150.05,27.49,2.79,-2.33,8.83
10143,1.89,161.86,27.87,2.77,-2.39,8.81
10148,1.33,176.68,28.88,2.63,-2.47,8.81
10154,0.69,186.29,29.92,2.47,-2.51,8.84
10158,-1.72,207.10,33.78,1.87,-2.56,9.16
10163,-2.40,210.96,34.72,1.72,-2.57,9.30
10168,-3.63,216.59,36.31,1.47,-2.57,9.59
10173,-4.94,220.52,37.56,1.25,-2.57,10.04
10177,-6.19,223.22,38.46,1.11,-2.57,10.79
10183,-6.40,223.79,38.63,1.08,-2.57,11.00
10188,-6.86,227.00,39.51,0.94,-2.47,14.92
10193,-6.78,227.49,39.70,0.94,-2.45,15.21
10198,-6.35,229.71,40.62,0.95,-2.40,16.10
10203,-5.25,238.25,44.29,0.97,-2.29,17.44
10208,-3.90,255.76,52.20,0.99,-2.18,18.51
10213,-3.18,263.94,56.15,1.00,-2.15,18.82
10219,-0.74,286.09,67.35,1.01,-2.09,19.34
10224,2.39,299.59,74.95,1.11,-2.01,19.44
10227,5.07,305.43,78.19,1.25,-1.94,19.44
10232,6.57,306.30,79.26,1.37,-1.89,19.41
10238,12.31,296.24,80.90,2.06,-1.77,19.21
10243,15.99,275.71,80.82,2.67,-1.78,19.02
10248,18.65,245.59,80.45,3.46,-1.79,18.84
10254,20.12,208.38,79.86,4.33,-1.77,18.69
10258,20.50,180.18,79.56,5.22,-1.70,18.51
10263,20.40,119.07,79.31,7.99,-1.15,17.66
10267,20.15,101.24,79.35,9.03,-1.02,17.03
10272,19.81,71.72,79.44,10.15,-1.14,15.61
10278,19.65,55.22,79.51,10.56,-1.29,14.61
10283,19.60,36.19,79.32,10.78,-1.46,13.28
10289,20.04,8.79,77.63,10.88,-1.71,11.09
10293,21.38,-20.79,72.53,10.67,-1.88,8.44
10297,21.83,-27.06,70.47,10.58,-1.89,7.89
10303,23.40,-44.75,61.35,10.13,-1.88,6.55
10307,24.11,-51.11,56.33,9.88,-1.86,6.20
10313,24.89,-58.47,49.13,9.54,-1.79,6.07
10319,24.83,-72.92,34.14,8.76,-1.44,6.69
10324,24.53,-74.67,32.86,8.68,-1.39,6.84
10328,23.83,-78.56,30.55,8.51,-1.28,7.14
10333,21.61,-88.56,26.46,8.12,-1.02,7.89
10339,20.61,-93.07,24.99,7.96,-0.91,8.20
10343,19.33,-99.51,23.36,7.73,-0.79,8.57
10347,17.76,-107.13,21.49,7.48,-0.62,9.00
10352,15.58,-118.51,19.36,7.11,-0.47,9.57
10358,13.22,-132.86,17.65,6.60,-0.44,10.14
10363,12.26,-139.34,17.08,6.37,-0.44,10.36
10368,11.40,-145.51,16.64,6.13,-0.45,10.56
10373,9.86,-158.62,16.17,5.59,-0.57,10.91
10378,8.67,-170.85,15.95,5.06,-0.83,11.16
10383,7.28,-191.29,15.84,4.21,-1.29,11.47
10388,6.97,-196.49,15.82,4.00,-1.41,11.52
10393,6.20,-211.13,15.42,3.43,-1.70,11.57
10398,5.53,-225.43,14.33,2.89,-1.91,11.55
10403,5.27,-229.87,13.75,2.71,-1.95,11.53
10408,4.17,-247.32,9.50,2.03,-2.00,11.27
10412,2.99,-257.19,6.21,1.66,-1.98,11.11
10418,1.31,-261.47,4.54,1.51,-2.00,11.27
10423,0.88,-262.05,4.28,1.48,-2.01,11.33
10428,-0.37,-263.29,3.72,1.43,-2.03,11.52
10432,-4.46,-265.74,2.53,1.32,-2.12,12.17
10439,-9.58,-266.90,1.67,1.18,-2.24,13.08
10443,-13.56,-267.43,1.08,1.08,-2.30,13.71
10447,-15.70,-267.62,0.78,1.03,-2.32,13.99
10454,-19.80,-268.07,0.15,0.93,-2.37,14.48
10458,-25.80,-269.24,-1.03,0.78,-2.45,15.02
10462,-28.72,-270.00,-1.69,0.67,-2.59,15.29
10468,-30.41,-270.53,-2.13,0.58,-2.76,15.45
10473,-32.27,-271.15,-2.61,0.43,-3.13,15.64
10478,-33.49,-271.54,-2.97,0.27,-3.57,15.74
10483,-33.95,-271.68,-3.17,0.15,-3.83,15.76
10487,-34.56,-271.85,-3.46,-0.11,-4.29,15.77
10493,-35.01,-271.95,-3.82,-0.45,-4.72,15.74
10498,-35.38,-271.83,-5.68,-1.15,-5.33,15.62
10503,-35.60,-271.68,-6.80,-1.40,-5.49,15.56
10508,-36.58,-270.37,-11.06,-1.85,-5.70,15.44
10512,-37.68,-268.84,-15.35,-2.18,-5.77,15.36
10518,-39.89,-265.95,-22.03,-2.58,-5.74,15.27
10523,-46.05,-257.60,-37.19,-3.44,-5.41,15.11
10527,-51.19,-250.43,-48.11,-4.11,-4.94,15.01
10533,-53.59,-246.72,-52.95,-4.44,-4.68,14.97
10539,-57.95,-239.41,-61.21,-5.05,-4.13,14.88
10543,-59.25,-237.09,-63.48,-5.23,-3.94,14.86
10548,-61.60,-232.22,-67.50,-5.62,-3.58,14.81
10553,-64.82,-223.28,-72.89,-6.36,-2.97,14.72
10558,-67.34,-212.67,-76.92,-7.27,-2.35,14.61
10563,-68.04,-206.53,-78.16,-7.84,-2.09,14.53
10568,-68.21,-196.80,-79.15,-8.79,-1.75,14.35
10573,-67.76,-187.73,-79.19,-9.61,-1.54,14.16
10577,-64.89,-167.67,-78.12,-11.08,-1.25,13.73
10583,-58.85,-140.19,-74.92,-12.68,-0.97,13.22
10589,-54.60,-124.24,-72.48,-13.53,-0.82,12.95
10593,-52.72,-117.81,-71.36,-13.91,-0.76,12.85
10598,-48.63,-104.97,-68.98,-14.64,-0.63,12.65
10603,-40.52,-81.21,-62.84,-16.10,-0.36,12.35
10608,-40.21,-80.15,-62.46,-16.13,-0.35,12.33
10613,-39.20,-76.89,-61.18,-16.18,-0.33,12.27
10619,-37.94,-72.71,-59.44,-16.26,-0.32,12.17
10624,-36.59,-67.61,-57.46,-16.43,-0.34,11.98
10628,-34.93,-60.52,-54.78,-16.72,-0.38,11.48
10633,-31.59,-44.57,-50.05,-17.63,-0.53,10.27
10638,-29.45,-33.59,-47.35,-18.46,-0.66,9.38
10643,-26.03,-13.88,-43.97,-19.74,-0.85,8.17
10648,-22.38,10.07,-41.39,-20.95,-1.03,7.11
10653,-19.71,33.13,-40.32,-21.44,-1.14,6.35
10658,-18.15,49.21,-39.84,-20.67,-1.16,6.04
10663,-16.40,77.28,-39.47,-17.46,-1.05,6.36
10668,-15.76,95.68,-39.46,-13.57,-0.85,7.10
10673,-15.06,118.99,-38.65,-8.04,-0.32,9.10
10678,-15.14,131.14,-36.08,-4.59,0.26,11.03
10683,-14.88,142.49,-32.95,-2.23,0.83,12.65
10688,-11.65,166.12,-22.92,1.18,2.44,15.96
10693,-4.74,191.27,-9.14,3.10,4.19,18.85
10698,-0.75,200.55,-3.13,3.42,4.77,19.67
10703,2.76,209.31,3.99,3.33,4.93,20.26
10708,4.13,212.83,8.65,3.00,4.52,20.51
10712,2.26,208.43,9.78,2.56,3.72,20.36
10718,1.51,205.63,9.90,2.46,3.45,20.30
10723,-0.93,191.52,9.76,2.26,2.31,20.07
10728,-2.19,181.30,9.59,2.23,1.56,19.94
10733,-3.62,170.86,9.77,2.25,0.51,19.71
10739,-5.17,158.69,11.27,2.43,-1.00,19.22
10743,-9.25,139.50,15.91,2.95,-4.33,16.66
10748,-10.92,135.15,17.05,3.09,-5.00,15.61
10754,-12.46,131.72,17.77,3.19,-5.23,14.76
10758,-14.26,124.97,18.11,3.27,-5.02,14.13
10763,-17.24,109.70,18.29,3.35,-4.31,13.44
10768,-18.18,98.86,17.97,3.35,-3.65,13.25
10773,-18.15,77.65,16.42,3.20,-2.25,12.98
10778,-17.51,68.86,15.56,3.08,-1.68,12.85
10784,-15.88,51.24,13.66,2.78,-0.59,12.55
10790,-14.80,41.21,12.70,2.62,-0.06,12.11
10793,-13.70,33.95,11.86,2.54,0.23,11.55
10798,-11.83,27.84,10.54,2.73,0.33,10.78
10805,-9.83,23.59,8.97,2.95,0.28,10.29
10808,-9.41,22.86,8.62,2.99,0.26,10.22
10813,-8.11,20.36,7.45,3.12,0.16,10.02
10819,-7.34,18.31,6.63,3.18,0.04,9.91
10823,-6.64,15.40,5.62,3.22,-0.21,9.79
10827,-6.48,12.32,4.68,3.24,-0.54,9.65
10833,-6.63,11.15,4.37,3.24,-0.70,9.59
10841,-7.15,9.36,3.72,3.23,-0.93,9.48
10843,-7.92,7.87,2.93,3.21,-1.09,9.38
10848,-8.48,6.86,2.23,3.20,-1.16,9.35
10852,-8.67,6.51,1.98,3.19,-1.18,9.34
10857,-9.02,5.88,1.52,3.19,-1.25,9.35
10863,-9.20,5.53,1.27,3.19,-1.29,9.35
10869,-9.39,5.12,1.00,3.19,-1.35,9.35
10874,-9.66,4.49,0.57,3.21,-1.48,9.34
10878,-9.80,4.07,0.30,3.23,-1.59,9.32
10883,-9.85,3.78,0.14,3.26,-1.69,9.30
10887,-9.86,3.55,0.05,3.28,-1.80,9.26
10892,-9.62,3.37,0.08,3.22,-1.89,9.24
10897,-8.41,3.42,0.40,2.99,-1.93,9.25
10904,-7.76,3.56,0.56,2.93,-1.91,9.26
10908,-7.24,3.70,0.68,2.89,-1.90,9.27
10912,-6.28,4.01,0.88,2.84,-1.84,9.30
10918,-5.74,4.20,0.98,2.82,-1.79,9.33
10923,-5.57,4.25,1.01,2.81,-1.77,9.34
10928,-5.33,4.31,1.04,2.79,-1.74,9.36
10934,-5.26,4.33,1.05,2.79,-1.73,9.36
10938,-5.07,4.38,1.08,2.78,-1.71,9.38
10943,-4.76,4.49,1.12,2.77,-1.67,9.42
10948,-4.58,4.59,1.14,2.77,-1.64,9.44
10953,-4.48,4.74,1.15,2.79,-1.59,9.47
10958,-4.48,4.86,1.16,2.80,-1.57,9.47
10963,-4.53,5.02,1.17,2.80,-1.53,9.47
10968,-4.57,5.15,1.18,2.80,-1.50,9.44
10973,-4.66,5.36,1.21,2.75,-1.49,9.37
10978,-4.70,5.45,1.22,2.70,-1.50,9.31
10983,-4.71,5.53,1.25,2.62,-1.54,9.23
10988,-4.62,5.56,1.27,2.56,-1.58,9.18
10993,-3.96,5.55,1.35,2.44,-1.67,9.10
10998,-3.57,5.53,1.37,2.41,-1.69,9.09
11004,-2.61,5.45,1.41,2.36,-1.70,9.09
11008,-2.08,5.39,1.43,2.35,-1.70,9.10
11012,-1.48,5.33,1.44,2.33,-1.70,9.12
11019,-0.64,5.22,1.45,2.30,-1.69,9.17
11023,-0.26,5.17,1.45,2.29,-1.69,9.20
11028,0.12,5.11,1.45,2.28,-1.69,9.22
11034,0.91,4.96,1.44,2.25,-1.68,9.28
11039,1.57,4.78,1.42,2.23,-1.67,9.32
11043,2.56,4.38,1.31,2.21,-1.65,9.39
11048,2.90,4.07,1.14,2.25,-1.63,9.41
11053,2.92,4.04,1.11,2.26,-1.62,9.42
11058,2.91,4.01,1.08,2.27,-1.62,9.42
11063,2.88,3.97,1.02,2.28,-1.61,9.43
11068,2.72,3.91,0.93,2.32,-1.60,9.44
11072,2.51,3.86,0.85,2.34,-1.60,9.46
11078,2.20,3.81,0.78,2.37,-1.60,9.47
11083,1.98,3.76,0.75,2.40,-1.59,9.48
11088,1.73,3.69,0.73,2.43,-1.59,9.47
11093,1.48,3.60,0.72,2.46,-1.58,9.47
11098,1.02,3.36,0.71,2.47,-1.56,9.45
11104,0.89,3.29,0.70,2.47,-1.56,9.46
11108,0.75,3.21,0.69,2.45,-1.55,9.46
11113,0.55,3.11,0.68,2.42,-1.55,9.46
11119,0.25,2.98,0.66,2.37,-1.57,9.47
11124,0.01,2.90,0.64,2.33,-1.60,9.47
11127,-0.32,2.83,0.62,2.29,-1.67,9.50
11133,-0.47,2.83,0.62,2.28,-1.71,9.52
11138,-0.89,2.89,0.62,2.27,-1.81,9.66
11143,-1.16,2.98,0.62,2.27,-1.85,9.74
11148,-1.32,3.06,0.61,2.27,-1.86,9.78
11154,-1.52,3.21,0.61,2.27,-1.87,9.80
11158,-1.77,3.54,0.61,2.25,-1.86,9.78
11163,-1.97,3.97,0.64,2.19,-1.82,9.71
11168,-2.02,4.09,0.65,2.17,-1.81,9.68
11173,-2.18,4.49,0.73,2.12,-1.77,9.60
11178,-2.36,4.87,0.84,2.08,-1.72,9.51
11184,-2.55,5.25,0.93,2.09,-1.68,9.46
11189,-2.74,5.64,0.98,2.11,-1.65,9.44
11192,-2.94,6.26,0.98,2.16,-1.63,9.42
11198,-3.04,6.58,0.96,2.18,-1.62,9.42
11203,-3.14,6.92,0.94,2.20,-1.61,9.42
11208,-3.46,7.97,0.85,2.23,-1.60,9.42
11212,-3.62,8.35,0.83,2.24,-1.59,9.42
11219,-3.97,9.08,0.78,2.24,-1.58,9.42
11223,-4.46,10.03,0.68,2.24,-1.57,9.42
11227,-5.18,11.48,0.45,2.22,-1.57,9.42
11232,-5.36,11.89,0.36,2.22,-1.57,9.43
11238,-5.65,12.60,0.18,2.21,-1.57,9.43
11243,-6.08,14.02,-0.19,2.18,-1.57,9.44
11248,-6.50,15.91,-0.66,2.15,-1.57,9.45
11254,-6.75,17.58,-1.02,2.11,-1.58,9.46
11258,-6.94,19.24,-1.35,2.10,-1.60,9.47
11262,-6.98,19.55,-1.42,2.10,-1.61,9.47
11268,-7.04,20.56,-1.55,2.11,-1.65,9.46
11272,-6.93,23.21,-1.24,2.12,-1.73,9.42
11278,-6.87,23.86,-1.05,2.11,-1.74,9.41
11283,-6.79,24.62,-0.78,2.10,-1.76,9.40
11288,-6.56,26.75,0.02,2.08,-1.80,9.38
11293,-6.49,27.40,0.27,2.07,-1.81,9.37
11298,-6.32,29.10,0.93,2.04,-1.84,9.35
11303,-6.03,32.23,2.14,1.97,-1.89,9.32
11308,-5.85,34.30,2.88,1.90,-1.92,9.30
11313,-5.57,36.96,3.71,1.78,-1.97,9.31
11318,-5.42,38.38,4.10,1.72,-2.00,9.32
11323,-5.18,40.31,4.56,1.64,-2.03,9.35
11328,-4.70,43.84,5.32,1.53,-2.09,9.41
11333,-4.37,46.26,5.89,1.49,-2.12,9.45
11338,-4.02,48.82,6.53,1.47,-2.15,9.48
11343,-3.64,51.76,7.43,1.48,-2.17,9.52
11348,-3.45,53.23,7.93,1.53,-2.18,9.54
11353,-3.24,55.31,8.65,1.61,-2.20,9.57
11358,-2.84,63.32,11.72,2.02,-2.27,9.64
11363,-2.81,65.58,12.55,2.09,-2.29,9.65
11368,-2.78,69.18,13.79,2.18,-2.32,9.66
11373,-2.79,75.07,15.56,2.21,-2.39,9.69
11377,-2.80,77.90,16.28,2.19,-2.41,9.70
11384,-2.79,81.12,16.90,2.16,-2.42,9.70
11388,-2.69,88.82,18.06,2.07,-2.39,9.69
11393,-2.58,95.04,18.54,2.02,-2.28,9.63
11398,-2.44,101.78,18.81,1.97,-2.06,9.50
11403,-2.43,108.07,18.88,1.94,-1.85,9.37
11408,-2.58,110.85,18.88,1.96,-1.74,9.31
11412,-3.06,118.25,18.98,2.01,-1.57,9.22
11418,-4.69,131.31,19.37,2.14,-1.41,9.16
11423,-6.36,140.31,20.14,2.22,-1.38,9.22
11427,-7.66,146.17,20.83,2.26,-1.38,9.28
11433,-11.12,158.81,22.74,2.30,-1.40,9.47
11438,-14.01,167.68,24.42,2.34,-1.42,9.66
11443,-15.95,172.84,25.55,2.36,-1.43,9.79
11448,-18.36,178.95,27.12,2.38,-1.45,10.03
11453,-20.70,185.26,29.08,2.34,-1.56,10.58
11458,-21.04,187.41,29.75,2.29,-1.62,10.83
11463,-21.30,190.19,30.63,2.17,-1.77,11.25
11468,-21.52,197.34,32.93,1.74,-2.21,12.37
11473,-21.46,200.73,34.05,1.57,-2.38,12.77
11478,-21.04,207.87,36.52,1.26,-2.68,13.48
11483,-20.44,215.49,39.31,0.98,-2.93,14.07
11488,-18.68,235.60,46.96,0.48,-3.35,15.16
11493,-15.45,260.16,56.60,0.05,-3.61,16.03
11497,-10.26,282.43,65.70,-0.19,-3.64,16.56
11503,-6.11,293.14,70.26,-0.25,-3.63,16.75
11507,0.82,302.15,74.36,-0.22,-3.56,16.91
11513,8.18,304.87,76.19,-0.09,-3.49,16.95
11518,12.61,304.29,76.60,0.04,-3.46,16.91
11522,21.36,300.95,77.04,0.41,-3.40,16.80
11527,23.84,298.71,77.04,0.56,-3.37,16.73
11533,25.63,295.98,76.90,0.70,-3.34,16.67
11538,28.79,288.75,76.19,1.03,-3.29,16.60
11542,33.77,264.68,72.35,2.00,-3.05,16.58
11547,34.28,253.17,69.99,2.55,-2.94,16.61
11553,33.93,229.62,64.54,3.83,-2.71,16.72
11558,32.89,208.46,60.98,4.96,-2.54,16.76
11562,30.85,165.61,55.54,7.40,-2.25,16.77
11568,28.91,114.54,54.10,9.68,-1.98,16.66
11573,27.48,71.72,56.15,11.21,-1.82,16.38
11577,26.66,46.61,59.06,11.87,-1.76,16.12
11584,25.60,1.70,69.56,12.64,-1.74,15.01
11588,27.24,-43.70,86.05,12.39,-1.99,12.12
11593,27.87,-48.37,87.96,12.29,-2.04,11.64
11598,32.53,-63.00,93.47,11.62,-2.28,9.51
11603,35.73,-68.17,94.53,11.18,-2.40,8.47
11608,37.80,-70.65,94.39,10.91,-2.46,7.93
11612,44.01,-78.55,90.38,10.03,-2.64,6.67
11618,44.81,-82.05,87.06,9.74,-2.69,6.47
11623,44.24,-89.61,80.06,9.30,-2.82,6.39
11628,42.35,-93.52,76.94,9.16,-2.89,6.47
11632,34.38,-104.76,68.72,8.79,-3.10,6.84
11638,33.05,-106.48,67.58,8.74,-3.13,6.91
11642,23.56,-118.60,60.04,8.39,-3.35,7.38
11647,16.53,-128.04,54.27,8.15,-3.47,7.75
11654,8.33,-139.63,47.30,7.87,-3.59,8.20
11658,2.63,-148.52,41.93,7.72,-3.64,8.51
11663,-4.62,-160.70,34.64,7.54,-3.68,8.91
11668,-9.21,-169.09,29.76,7.42,-3.67,9.13
11673,-16.49,-183.67,21.52,7.17,-3.63,9.45
11677,-20.77,-193.43,16.37,6.89,-3.58,9.61
11683,-24.81,-204.25,10.94,6.40,-3.49,9.76
11687,-27.94,-215.29,5.60,5.72,-3.37,9.93
11692,-29.88,-225.31,0.95,4.96,-3.20,10.11
11697,-30.54,-240.21,-5.63,3.82,-2.77,10.52
11703,-30.54,-245.39,-7.71,3.44,-2.56,10.70
11708,-30.32,-249.54,-9.30,3.20,-2.36,10.88
11712,-29.89,-253.42,-10.91,2.96,-2.14,11.06
11718,-29.49,-255.91,-11.68,2.81,-1.98,11.20
11723,-28.89,-259.82,-12.14,2.61,-1.74,11.41
11728,-27.90,-266.17,-12.08,2.33,-1.36,11.78
11733,-27.23,-270.00,-11.83,2.17,-1.12,12.04
11738,-26.68,-273.53,-10.88,2.04,-0.93,12.37
11742,-26.55,-274.87,-9.75,2.00,-0.85,12.51
11748,-26.78,-276.93,-7.04,1.94,-0.78,12.76
11753,-27.40,-279.48,-4.03,1.85,-0.78,13.09
11757,-28.77,-282.57,1.37,1.73,-0.81,13.67
11763,-29.90,-284.57,5.14,1.64,-0.85,14.08
11768,-32.57,-287.99,11.10,1.46,-1.06,14.83
11773,-34.14,-289.44,13.52,1.36,-1.23,15.17
11777,-34.94,-290.06,14.43,1.31,-1.31,15.32
11782,-37.14,-291.49,16.40,1.20,-1.57,15.65
11787,-40.81,-292.14,16.44,1.00,-2.22,16.04
11792,-43.03,-292.13,15.87,0.87,-2.73,16.20
11798,-45.37,-291.74,14.57,0.63,-3.46,16.35
11804,-46.37,-291.07,13.46,0.49,-3.86,16.41
11808,-49.51,-288.41,9.47,0.06,-4.86,16.56
11812,-53.58,-283.39,1.71,-0.64,-6.06,16.69
11819,-57.60,-277.70,-6.18,-1.27,-6.69,16.68
11823,-59.93,-274.37,-10.57,-1.63,-6.91,16.61
11827,-64.22,-268.98,-17.18,-2.24,-7.11,16.43
11834,-69.92,-262.38,-24.97,-3.00,-7.25,16.13
11838,-73.50,-258.57,-29.98,-3.47,-7.27,15.94
11843,-78.01,-254.12,-36.73,-4.04,-7.23,15.70
11848,-85.23,-244.61,-53.73,-4.98,-6.95,15.40
11853,-88.18,-239.29,-64.13,-5.40,-6.72,15.31
11857,-90.91,-231.85,-77.96,-5.91,-6.30,15.27
11863,-93.29,-221.57,-96.24,-6.53,-5.57,15.25
11868,-94.39,-213.26,-108.87,-7.10,-4.91,15.26
11873,-95.35,-202.13,-123.02,-7.91,-3.97,15.29
11878,-95.44,-182.86,-138.02,-9.39,-2.57,15.27
11883,-95.29,-177.86,-140.37,-9.78,-2.26,15.25
11888,-94.47,-167.64,-143.02,-10.57,-1.76,15.19
11892,-92.28,-156.07,-144.21,-11.48,-1.29,15.05
11898,-88.57,-143.48,-143.66,-12.49,-0.81,14.88
11903,-84.71,-134.56,-142.21,-13.19,-0.49,14.74
11907,-75.42,-115.72,-135.60,-14.37,0.15,14.38
11912,-70.32,-105.75,-130.19,-14.87,0.44,14.16
11918,-63.63,-91.06,-120.17,-15.38,0.77,13.77
11923,-56.50,-74.32,-106.66,-15.77,1.04,13.25
11927,-47.22,-49.84,-85.52,-16.09,1.28,12.34
11934,-45.13,-44.09,-80.31,-16.13,1.31,12.10
11939,-36.69,-21.56,-60.23,-16.14,1.33,11.13
11942,-32.31,-10.50,-50.35,-16.11,1.30,10.64
11948,-29.74,-4.60,-45.15,-16.05,1.25,10.38
11952,-25.58,2.32,-38.53,-15.86,1.09,10.08
11958,-21.68,4.71,-35.04,-15.65,0.89,9.99
11962,-18.88,6.11,-33.09,-15.47,0.71,9.94
11968,-11.24,9.24,-30.45,-14.87,0.18,9.83
11973,-8.28,10.50,-29.67,-14.53,-0.03,9.79
11977,-4.21,14.10,-28.12,-13.68,-0.28,9.63
11984,0.94,27.13,-24.96,-11.08,-0.53,9.02
11988,5.09,64.59,-13.98,-3.88,-0.48,7.49
11992,6.24,81.12,-9.52,-1.19,-0.44,6.99
11998,8.39,112.05,-2.35,2.69,-0.30,6.34
12004,9.70,123.94,-0.42,3.62,-0.09,6.22
12008,11.42,140.06,1.88,4.49,0.37,6.12
12013,12.08,158.64,4.34,4.52,1.53,6.45
12019,10.75,169.96,6.87,4.00,3.00,7.67
12022,9.94,171.97,7.65,3.78,3.37,8.18
12027,8.01,174.68,9.42,3.32,4.07,9.38
12032,6.41,174.96,11.33,2.96,4.58,10.46
12038,4.20,172.85,14.96,2.51,5.07,12.15
12043,2.52,168.53,18.28,2.30,5.13,13.12
12047,1.01,161.60,21.90,2.20,4.58,13.77
12053,-1.36,152.43,25.75,2.24,3.14,14.04
12057,-4.73,141.55,29.06,2.41,0.59,14.06
12062,-6.16,137.52,29.81,2.50,-0.51,13.99
12067,-7.92,132.72,30.11,2.65,-1.91,13.83
12072,-9.63,125.09,28.63,2.86,-3.38,13.41
12077,-10.28,116.18,23.57,3.07,-4.04,12.72
12084,-10.13,111.80,20.73,3.14,-3.99,12.38
12087,-9.45,103.09,14.76,3.25,-3.66,11.72
12092,-8.50,92.15,8.73,3.34,-3.11,11.08
12098,-7.43,79.03,3.09,3.43,-2.48,10.50
12103,-6.45,65.03,-1.33,3.51,-1.91,10.08
12107,-5.94,56.46,-3.06,3.56,-1.60,9.96
12112,-5.63,50.25,-3.68,3.60,-1.40,9.97
12119,-5.40,44.77,-3.98,3.65,-1.25,10.02
12123,-5.38,42.48,-3.74,3.67,-1.22,10.07
12128,-5.39,40.39,-3.15,3.70,-1.20,10.16
12133,-5.48,37.48,-1.81,3.72,-1.18,10.28
12138,-5.55,36.03,-0.93,3.72,-1.18,10.31
12142,-5.62,34.70,-0.17,3.71,-1.18,10.33
12148,-5.94,30.34,1.71,3.67,-1.18,10.31
12154,-6.13,28.36,2.32,3.65,-1.18,10.28
12158,-6.67,24.05,3.17,3.58,-1.22,10.19
12162,-7.08,20.63,3.40,3.51,-1.24,10.09
12169,-7.31,18.70,3.42,3.47,-1.26,10.02
12173,-7.50,17.15,3.38,3.43,-1.26,9.97
12178,-7.67,15.43,3.29,3.39,-1.26,9.90
12184,-7.95,13.23,3.10,3.34,-1.26,9.81
12188,-8.74,10.18,2.75,3.27,-1.25,9.68
12192,-9.79,8.57,2.49,3.19,-1.23,9.60
12198,-10.44,8.08,2.41,3.15,-1.23,9.56
12203,-11.15,7.78,2.37,3.10,-1.23,9.54
12207,-11.98,7.46,2.35,3.06,-1.25,9.51
12212,-12.75,7.16,2.41,3.02,-1.36,9.50
12218,-13.05,7.01,2.45,3.00,-1.44,9.49
12223,-13.23,6.86,2.47,2.99,-1.50,9.48
12228,-13.37,6.59,2.52,2.98,-1.63,9.47
12233,-13.33,6.47,2.53,2.97,-1.67,9.46
12237,-13.21,6.19,2.55,2.95,-1.74,9.44
12243,-12.60,5.36,2.57,2.88,-1.86,9.40
12248,-12.18,5.04,2.57,2.84,-1.90,9.39
12253,-11.83,4.85,2.56,2.81,-1.92,9.39
12257,-11.35,4.65,2.54,2.79,-1.94,9.39
12262,-10.65,4.42,2.52,2.77,-1.96,9.40
12268,-10.22,4.30,2.51,2.75,-1.97,9.40
12273,-9.16,4.02,2.44,2.71,-1.99,9.40
12278,-8.82,3.94,2.39,2.70,-1.99,9.40
12283,-8.37,3.84,2.30,2.68,-1.98,9.40
12287,-7.91,3.75,2.13,2.65,-1.96,9.39
12292,-7.39,3.70,1.79,2.62,-1.87,9.34
12298,-7.31,3.72,1.60,2.60,-1.78,9.30
12303,-7.29,3.76,1.48,2.59,-1.73,9.28
12307,-7.29,3.81,1.35,2.59,-1.70,9.26
12312,-7.31,3.93,1.12,2.58,-1.66,9.25
12317,-7.24,4.48,0.51,2.55,-1.71,9.28
12323,-7.17,4.76,0.34,2.55,-1.76,9.32
12327,-7.10,4.95,0.25,2.54,-1.80,9.36
12333,-7.01,5.16,0.16,2.54,-1.84,9.39
12338,-6.77,5.52,0.05,2.53,-1.92,9.46
12342,-6.55,5.66,0.01,2.53,-1.96,9.47
12347,-6.42,5.73,0.01,2.52,-1.98,9.46
12353,-5.90,6.04,0.03,2.48,-2.02,9.32
12358,-5.83,6.11,0.04,2.47,-2.03,9.29
12363,-5.80,6.14,0.05,2.46,-2.03,9.28
12368,-5.66,6.23,0.07,2.45,-2.03,9.25
12373,-5.60,6.33,0.11,2.43,-2.01,9.22
12377,-5.57,6.58,0.19,2.40,-1.96,9.16
12383,-5.75,7.49,0.74,2.34,-1.75,9.08
12388,-6.00,7.82,0.98,2.35,-1.68,9.08
12393,-6.12,7.96,1.09,2.36,-1.66,9.10
12398,-6.45,8.30,1.32,2.41,-1.65,9.18
12404,-6.54,8.38,1.37,2.44,-1.69,9.23
12408,-6.65,8.45,1.41,2.48,-1.75,9.31
12413,-6.74,8.47,1.43,2.51,-1.82,9.37
12419,-6.78,8.45,1.38,2.53,-1.89,9.43
12423,-6.70,8.41,1.26,2.52,-1.96,9.47
12428,-6.54,8.36,1.07,2.51,-2.01,9.49
12433,-6.34,8.33,0.88,2.49,-2.03,9.50
12438,-6.23,8.34,0.78,2.47,-2.04,9.49
12443,-6.15,8.36,0.66,2.45,-2.04,9.49
12448,-6.14,8.63,0.35,2.39,-2.03,9.48
12454,-6.27,8.90,0.28,2.37,-2.01,9.48
12458,-6.47,9.25,0.24,2.36,-1.98,9.47
12463,-6.85,10.11,0.18,2.37,-1.94,9.45
12468,-7.00,10.48,0.17,2.37,-1.92,9.44
12473,-7.24,11.10,0.17,2.37,-1.90,9.42
12478,-7.46,11.64,0.17,2.38,-1.89,9.41
12484,-7.68,12.11,0.15,2.36,-1.88,9.41
12488,-7.76,12.30,0.13,2.34,-1.88,9.41
12493,-7.83,12.47,0.10,2.32,-1.88,9.42
12498,-7.89,12.69,0.02,2.28,-1.89,9.43
12503,-7.94,13.11,-0.10,2.23,-1.90,9.44
12507,-7.96,13.31,-0.15,2.21,-1.91,9.44
12513,-8.03,14.20,-0.31,2.14,-1.97,9.46
12520,-8.05,14.49,-0.36,2.12,-1.99,9.46
12523,-8.07,14.88,-0.41,2.09,-2.03,9.47
12528,-8.08,15.38,-0.47,2.05,-2.09,9.49
12534,-8.08,15.61,-0.50,2.00,-2.14,9.50
12538,-8.06,15.76,-0.51,1.97,-2.17,9.52
12543,-7.95,16.07,-0.52,1.91,-2.22,9.53
12549,-7.81,16.26,-0.52,1.88,-2.24,9.54
12553,-7.69,16.46,-0.52,1.86,-2.24,9.55
12557,-7.49,16.79,-0.52,1.84,-2.25,9.55
12563,-7.35,17.00,-0.52,1.84,-2.25,9.55
12569,-7.22,17.20,-0.52,1.84,-2.25,9.54
12573,-6.69,18.09,-0.54,1.84,-2.23,9.54
12578,-6.21,18.95,-0.57,1.86,-2.22,9.52
12584,-5.77,19.82,-0.63,1.92,-2.22,9.50
12588,-5.39,20.74,-0.67,2.02,-2.21,9.47
12593,-5.19,21.22,-0.65,2.07,-2.22,9.45
12599,-4.98,21.73,-0.51,2.13,-2.22,9.42
12605,-4.50,22.77,0.03,2.21,-2.23,9.35
12608,-4.13,23.53,0.61,2.24,-2.25,9.31
12612,-3.80,24.24,1.15,2.26,-2.27,9.28
12618,-3.23,25.57,2.25,2.24,-2.34,9.23
12623,-2.80,26.62,3.07,2.20,-2.41,9.21
12627,-2.01,28.72,4.51,2.08,-2.56,9.19
12633,-1.58,29.99,5.20,2.00,-2.64,9.19
12638,-1.10,31.53,5.93,1.91,-2.71,9.20
12643,-0.85,32.57,6.34,1.87,-2.73,9.22
12648,-0.49,34.22,6.92,1.81,-2.75,9.27
12653,-0.13,36.45,7.68,1.72,-2.72,9.35
12657,0.37,40.97,9.14,1.57,-2.58,9.53
12663,0.56,43.77,10.05,1.49,-2.47,9.62
12667,0.71,47.59,11.26,1.49,-2.35,9.71
12672,0.76,49.69,11.90,1.52,-2.29,9.74
12678,0.78,51.75,12.51,1.57,-2.26,9.75
12684,0.81,54.51,13.31,1.66,-2.24,9.76
12688,0.84,56.44,13.86,1.69,-2.24,9.75
12692,0.87,58.51,14.43,1.73,-2.25,9.73
12699,0.97,62.60,15.49,1.83,-2.31,9.68
12703,1.05,65.42,16.18,1.94,-2.36,9.64
12707,1.13,68.16,16.81,2.06,-2.40,9.60
12712,1.30,73.44,17.91,2.33,-2.47,9.53
12719,1.63,81.32,19.10,2.64,-2.52,9.44
12723,1.85,85.70,19.54,2.76,-2.53,9.41
12727,2.18,91.13,19.87,2.85,-2.54,9.37
12733,2.52,98.20,20.15,2.89,-2.54,9.36
12738,2.59,100.83,20.23,2.90,-2.53,9.37
12742,2.68,107.77,20.42,2.88,-2.51,9.40
12748,2.58,114.35,20.57,2.81,-2.45,9.45
12752,2.23,120.82,20.70,2.71,-2.36,9.55
12758,1.78,126.08,20.89,2.62,-2.27,9.63
12763,0.36,132.00,21.49,2.50,-2.13,9.77
12768,-3.74,142.02,23.35,2.31,-1.92,10.00
12772,-8.05,149.24,25.41,2.19,-1.78,10.16
12777,-12.99,156.10,27.95,2.11,-1.69,10.26
12783,-14.67,158.39,28.87,2.10,-1.67,10.29
12788,-17.23,162.91,30.47,2.09,-1.66,10.33
12792,-19.73,168.05,32.17,2.09,-1.65,10.36
12799,-22.99,177.02,34.16,2.04,-1.74,10.73
12803,-24.44,182.15,34.72,1.99,-1.84,11.15
12808,-25.94,188.79,34.45,1.90,-1.99,11.77
12812,-28.48,203.86,31.38,1.61,-2.38,13.48
12818,-29.30,211.24,29.77,1.46,-2.56,14.21
12823,-30.07,219.89,27.61,1.26,-2.75,15.02
12827,-31.10,237.95,23.45,0.81,-3.14,16.45
12833,-31.56,257.53,26.81,0.20,-3.51,17.44
12838,-31.58,261.27,29.02,0.08,-3.60,17.54
12843,-31.53,267.42,35.35,-0.16,-3.81,17.65
12848,-31.32,274.34,49.55,-0.46,-4.17,17.73
12853,-31.03,278.54,63.61,-0.65,-4.56,17.70
12858,-30.75,279.43,71.78,-0.66,-4.82,17.65
12863,-28.06,268.91,109.34,0.09,-6.14,17.37
12868,-25.24,256.15,119.90,0.71,-6.54,17.26
12872,-24.65,253.64,120.93,0.80,-6.57,17.26
12878,-16.73,222.68,120.53,1.86,-6.31,17.06
12883,-14.21,213.84,119.33,2.14,-6.17,16.87
12888,-8.49,193.30,116.47,2.83,-5.84,16.31
12892,0.24,157.61,110.47,4.34,-5.26,14.70
12899,6.66,127.65,105.22,5.73,-4.81,12.88
12903,10.91,102.93,101.31,6.83,-4.53,11.33
12907,17.35,55.99,94.74,8.66,-4.19,8.43
12913,19.21,34.83,92.63,9.15,-4.14,7.51
12918,20.63,14.45,90.53,9.51,-4.09,6.78
12923,21.35,-6.34,88.63,9.62,-4.07,6.41
12928,21.73,-16.62,86.88,9.51,-4.03,6.38
12933,21.95,-21.01,85.16,9.42,-3.98,6.41
12938,22.34,-28.51,80.73,9.22,-3.86,6.48
12943,22.57,-32.45,77.48,9.07,-3.77,6.53
12948,23.05,-38.53,69.73,8.76,-3.60,6.63
12952,23.56,-44.58,59.39,8.36,-3.38,6.73
12958,23.16,-48.58,50.96,7.99,-3.23,6.79
12963,21.41,-51.95,41.52,7.60,-3.11,6.83
12968,18.43,-53.85,34.30,7.33,-3.04,6.84
12973,13.24,-59.08,22.86,7.08,-2.99,6.86
12978,10.09,-63.95,15.99,6.97,-2.97,6.90
12983,7.64,-70.43,9.93,6.87,-2.95,7.02
12988,5.99,-77.43,5.14,6.78,-2.93,7.27
12993,4.67,-96.61,-4.06,6.41,-2.84,8.55
12998,5.01,-102.96,-6.69,6.24,-2.79,9.15
13003,5.33,-106.20,-7.97,6.14,-2.76,9.51
13007,5.66,-109.11,-9.09,6.05,-2.72,9.84
13013,7.06,-120.82,-13.33,5.71,-2.56,11.03
13018,8.41,-131.76,-16.94,5.45,-2.39,11.92
13023,10.02,-166.28,-24.45,4.84,-2.04,13.00
13028,9.81,-177.22,-25.85,4.65,-2.00,13.06
13032,9.69,-180.27,-26.16,4.59,-1.99,13.07
13038,9.33,-187.29,-26.74,4.44,-1.98,13.06
13043,8.42,-198.52,-27.37,4.16,-1.99,12.99
13048,7.11,-209.65,-27.80,3.84,-2.03,12.86
13053,5.10,-224.12,-28.00,3.36,-2.10,12.64
13057,3.97,-230.96,-27.91,3.08,-2.16,12.50
13063,0.53,-253.75,-26.57,2.17,-2.41,12.04
13067,-0.19,-259.74,-25.86,1.95,-2.49,11.93
13073,-0.69,-264.97,-24.99,1.78,-2.58,11.85
13078,-1.18,-271.69,-23.41,1.56,-2.73,11.81
13083,-1.35,-275.69,-22.10,1.44,-2.87,11.85
13088,-1.46,-278.09,-21.19,1.36,-2.98,11.93
13093,-1.80,-281.62,-19.23,1.14,-3.32,12.48
13099,-1.90,-282.04,-18.86,1.08,-3.42,12.70
13103,-2.12,-282.27,-18.41,0.97,-3.59,13.11
13108,-2.50,-282.33,-18.06,0.86,-3.76,13.57
13113,-3.86,-281.79,-17.50,0.65,-4.11,14.49
13119,-6.87,-281.01,-17.10,0.39,-4.66,15.45
13123,-7.35,-280.93,-17.08,0.36,-4.73,15.55
13128,-7.96,-280.83,-17.05,0.31,-4.84,15.68
13134,-9.51,-280.63,-17.02,0.18,-5.13,15.98
13138,-12.82,-280.30,-17.00,-0.14,-5.75,16.48
13143,-15.64,-279.97,-17.11,-0.44,-6.24,16.79
13149,-16.59,-279.86,-17.20,-0.55,-6.40,16.86
13154,-22.28,-279.17,-18.34,-1.23,-7.07,17.00
13158,-23.81,-278.95,-18.95,-1.44,-7.20,16.99
13163,-27.97,-278.23,-21.22,-2.05,-7.45,16.89
13168,-33.03,-276.83,-26.09,-2.88,-7.57,16.50
13173,-36.89,-275.21,-31.00,-3.49,-7.56,16.13
13178,-40.65,-272.83,-36.63,-4.05,-7.45,15.73
13184,-48.99,-265.75,-48.75,-4.98,-6.84,15.04
13188,-51.82,-262.84,-52.58,-5.23,-6.53,14.86
13192,-56.81,-257.34,-58.43,-5.63,-5.91,14.63
13199,-63.26,-249.28,-64.93,-6.10,-5.00,14.44
13204,-67.28,-243.46,-68.39,-6.40,-4.40,14.39
13208,-71.36,-236.65,-71.55,-6.70,-3.75,14.35
13212,-76.07,-226.32,-74.64,-7.15,-2.88,14.36
13218,-80.41,-210.33,-77.00,-7.90,-1.74,14.42
13223,-81.35,-203.95,-77.33,-8.23,-1.34,14.45
13227,-80.78,-190.16,-77.23,-8.99,-0.57,14.52
13233,-77.56,-178.48,-76.28,-9.57,-0.08,14.13
13238,-72.11,-167.12,-74.73,-10.12,0.28,12.85
13242,-64.16,-156.31,-72.10,-10.62,0.51,10.47
13248,-55.28,-146.85,-68.79,-11.07,0.63,7.60
13253,-48.94,-140.63,-66.16,-11.44,0.67,5.74
13258,-40.01,-132.89,-61.54,-11.99,0.70,3.29
13263,-24.90,-118.06,-50.28,-13.16,0.63,1.01
13268,-15.54,-107.04,-40.33,-14.07,0.51,0.58
13273,-10.38,-98.46,-31.84,-14.67,0.38,1.17
13278,-6.95,-91.12,-24.20,-15.11,0.22,2.42
13283,-4.04,-78.57,-12.37,-15.48,-0.06,4.52
13288,-2.44,-65.10,-0.92,-15.67,-0.42,6.68
13293,-2.27,-51.06,6.90,-15.60,-0.85,8.02
13299,-2.26,-45.10,9.20,-15.45,-1.05,8.41
13303,-2.19,-37.27,11.37,-15.24,-1.35,8.68
13307,-1.83,-23.22,12.93,-14.09,-1.99,8.94
13312,-1.49,-14.59,12.42,-13.17,-2.31,8.92
13318,5.23,22.14,2.87,-8.10,-2.83,8.55
13323,13.24,46.65,-10.10,-5.23,-2.91,8.07
13328,18.27,59.22,-18.71,-3.70,-2.39,7.75
13333,25.06,77.99,-31.44,-1.85,-1.55,7.32
13337,38.72,110.60,-64.55,0.71,0.55,6.33
13342,42.47,125.27,-83.12,1.61,2.48,6.54
13347,42.90,129.76,-88.05,1.78,3.20,6.85
13353,42.16,137.50,-92.86,1.85,4.42,7.59
13358,36.76,152.02,-95.49,1.84,6.69,10.39
13363,31.50,163.90,-90.90,1.70,7.90,12.61
13368,28.62,170.22,-87.54,1.62,8.42,13.77
13372,14.20,194.73,-68.39,1.47,9.87,18.07
13377,7.91,203.52,-58.40,1.46,10.20,19.40
13382,5.22,208.56,-52.36,1.46,10.41,19.88
13388,2.06,213.75,-46.74,1.52,10.60,20.55
13393,0.86,214.01,-45.11,1.59,10.57,20.76
13398,-3.17,207.16,-35.87,1.84,9.98,20.70
13403,-7.58,189.55,-13.72,2.42,8.34,20.29
13407,-7.65,184.65,-10.44,2.51,7.64,20.05
13413,-7.47,178.36,-5.38,2.65,6.44,19.46
13418,-8.05,147.38,3.78,3.00,1.08,16.24
13423,-8.64,116.21,4.92,3.17,-1.40,13.82
13427,-8.75,108.47,4.94,3.20,-1.72,13.34
13433,-8.85,97.00,4.84,3.25,-1.90,12.73
13438,-8.07,80.80,4.49,3.33,-1.75,12.01
13443,-5.14,59.52,3.90,3.42,-1.42,11.22
13449,-1.88,42.69,3.42,3.49,-1.02,10.70
13453,1.02,30.95,3.10,3.53,-0.73,10.37
13458,2.10,21.23,3.17,3.52,-0.77,10.17
13463,1.98,19.96,3.23,3.51,-0.79,10.16
13468,1.48,18.62,3.35,3.51,-0.84,10.16
13473,-0.51,15.98,3.67,3.51,-0.96,10.18
13477,-2.66,13.65,3.94,3.52,-0.95,10.13
13484,-3.10,13.19,3.98,3.53,-0.94,10.10
13488,-4.23,11.72,4.05,3.55,-0.92,9.94
13492,-4.62,11.28,4.06,3.55,-0.91,9.88
13498,-5.17,10.78,4.07,3.56,-0.91,9.82
13503,-6.81,9.59,4.06,3.56,-0.89,9.66
13507,-7.91,8.95,4.00,3.56,-0.88,9.59
13513,-9.44,8.19,3.78,3.52,-0.87,9.53
13520,-11.07,7.28,3.12,3.46,-0.87,9.46
13523,-11.49,6.97,2.79,3.44,-0.87,9.44
13528,-11.72,6.66,2.46,3.42,-0.87,9.43
13533,-11.91,6.01,1.73,3.36,-0.98,9.40
13538,-11.73,5.57,1.39,3.32,-1.11,9.40
13543,-11.47,5.20,1.17,3.26,-1.27,9.40
13549,-10.67,4.40,0.89,3.10,-1.70,9.43
13553,-10.34,4.18,0.86,3.03,-1.84,9.45
13558,-9.63,3.93,0.93,2.90,-1.99,9.47
13563,-8.91,3.91,1.10,2.81,-2.00,9.48
13567,-8.69,3.92,1.17,2.79,-1.99,9.48
13573,-8.07,3.98,1.36,2.75,-1.94,9.47
13578,-7.29,4.11,1.58,2.72,-1.87,9.46
13583,-6.22,4.32,1.86,2.69,-1.77,9.42
13587,-5.76,4.45,1.97,2.69,-1.73,9.40
13593,-4.73,4.86,2.25,2.68,-1.60,9.34
13598,-4.65,4.92,2.28,2.68,-1.59,9.34
13603,-4.38,5.14,2.39,2.68,-1.54,9.32
13607,-4.30,5.26,2.43,2.67,-1.51,9.31
13613,-4.25,5.34,2.44,2.66,-1.49,9.31
13618,-4.22,5.38,2.43,2.64,-1.48,9.31
13623,-4.18,5.42,2.35,2.59,-1.47,9.31
13627,-4.13,5.42,2.28,2.55,-1.47,9.32
13633,-4.04,5.40,2.19,2.50,-1.49,9.32
13638,-3.82,5.35,2.05,2.42,-1.56,9.33
13643,-3.58,5.30,1.95,2.35,-1.64,9.34
13648,-3.41,5.27,1.89,2.31,-1.69,9.35
13653,-3.18,5.23,1.83,2.27,-1.77,9.37
13657,-2.86,5.20,1.81,2.24,-1.88,9.41
13663,-2.73,5.19,1.83,2.24,-1.92,9.44
13668,-2.53,5.19,1.90,2.26,-1.94,9.47
13673,-2.24,5.21,2.07,2.31,-1.94,9.52
13678,-2.11,5.25,2.14,2.33,-1.92,9.52
13683,-1.87,5.35,2.25,2.37,-1.87,9.54
13688,-1.76,5.41,2.29,2.39,-1.85,9.54
13692,-1.62,5.53,2.34,2.41,-1.81,9.54
13699,-1.58,5.57,2.35,2.41,-1.79,9.55
13703,-1.39,5.78,2.41,2.44,-1.73,9.55
13707,-1.33,5.85,2.43,2.45,-1.71,9.55
13713,-1.23,6.00,2.46,2.48,-1.67,9.56
13718,-1.06,6.16,2.50,2.58,-1.62,9.56
13723,-1.01,6.17,2.51,2.65,-1.60,9.55
13728,-1.00,6.16,2.52,2.67,-1.59,9.55
13734,-0.99,6.13,2.52,2.69,-1.59,9.55
13738,-0.99,6.11,2.52,2.70,-1.58,9.56
13743,-0.99,6.08,2.52,2.70,-1.58,9.57
13748,-0.98,6.04,2.51,2.69,-1.58,9.60
13753,-0.97,6.00,2.51,2.65,-1.58,9.66
13757,-0.96,5.98,2.51,2.60,-1.58,9.72
13764,-0.86,5.89,2.50,2.47,-1.62,9.87
13768,-0.72,5.78,2.49,2.35,-1.69,9.97
13772,-0.63,5.70,2.48,2.28,-1.73,10.01
13777,-0.57,5.66,2.46,2.19,-1.77,10.03
13783,-0.54,5.63,2.44,2.14,-1.79,10.03
13788,-0.54,5.63,2.43,2.13,-1.79,10.03
13792,-0.53,5.61,2.36,2.11,-1.80,9.99
13799,-0.57,5.62,2.20,2.15,-1.81,9.90
13803,-0.65,5.65,2.02,2.19,-1.81,9.80
13808,-0.76,5.72,1.82,2.25,-1.80,9.69
13813,-0.83,5.76,1.72,2.27,-1.80,9.64
13818,-0.96,5.83,1.55,2.33,-1.77,9.55
13823,-1.09,5.91,1.44,2.36,-1.72,9.48
13827,-1.13,5.93,1.42,2.37,-1.70,9.47
13833,-1.23,5.99,1.38,2.38,-1.66,9.44
13838,-1.50,6.18,1.32,2.38,-1.59,9.40
13843,-1.78,6.42,1.28,2.38,-1.56,9.39
13849,-2.19,6.85,1.23,2.34,-1.55,9.40
13853,-2.57,7.51,1.18,2.27,-1.56,9.45
13858,-2.72,7.86,1.16,2.23,-1.57,9.48
13864,-2.79,8.09,1.15,2.20,-1.59,9.50
13869,-2.91,8.72,1.13,2.13,-1.63,9.56
13873,-2.98,9.24,1.12,2.07,-1.67,9.59
13878,-3.04,9.74,1.12,2.01,-1.72,9.62
13883,-3.15,10.38,1.12,1.93,-1.78,9.62
13888,-3.26,10.68,1.12,1.91,-1.80,9.60
13892,-3.33,10.86,1.12,1.91,-1.80,9.58
13899,-3.43,11.18,1.12,1.92,-1.79,9.55
13903,-3.59,11.77,1.13,1.96,-1.78,9.51
13907,-3.72,12.59,1.14,2.01,-1.77,9.47
13913,-3.83,13.92,1.18,2.07,-1.75,9.44
13918,-3.86,14.80,1.22,2.09,-1.74,9.43
13923,-3.89,15.44,1.26,2.10,-1.74,9.43
13927,-3.92,16.10,1.31,2.11,-1.74,9.43
13933,-3.99,17.64,1.47,2.11,-1.73,9.43
13938,-4.09,19.63,1.68,2.10,-1.74,9.44
13943,-4.15,21.17,1.84,2.10,-1.74,9.44
13948,-4.16,21.61,1.89,2.09,-1.74,9.44
13953,-4.21,24.25,2.21,2.06,-1.74,9.45
13957,-4.21,25.88,2.45,2.02,-1.74,9.44
13963,-4.21,28.35,2.85,1.95,-1.74,9.42
13968,-4.23,31.22,3.34,1.84,-1.73,9.39
13973,-4.28,34.36,3.88,1.72,-1.73,9.35
13978,-4.30,35.02,3.99,1.70,-1.73,9.34
13983,-4.41,37.92,4.48,1.62,-1.76,9.30
13988,-4.51,41.74,5.18,1.60,-1.84,9.26
13992,-4.58,45.30,5.87,1.63,-1.93,9.22
13998,-4.56,48.74,6.63,1.73,-2.06,9.19
14002,-4.49,51.49,7.27,1.85,-2.17,9.18
14008,-4.41,53.75,7.84,1.96,-2.27,9.19
14014,-4.32,56.55,8.63,2.09,-2.39,9.23
14018,-4.21,61.55,10.10,2.21,-2.51,9.30
14023,-4.15,65.03,11.14,2.24,-2.55,9.33
14028,-4.08,70.77,12.81,2.26,-2.57,9.36
14032,-3.93,80.27,15.37,2.24,-2.53,9.36
14038,-3.67,87.19,16.93,2.22,-2.42,9.36
14042,-3.49,89.78,17.40,2.22,-2.35,9.38
14048,-3.11,94.17,17.97,2.22,-2.21,9.41
14053,-2.66,100.12,18.28,2.27,-2.03,9.43
14057,-2.33,106.21,18.47,2.33,-1.90,9.45
14063,-2.24,110.40,18.55,2.36,-1.84,9.46
14068,-2.29,122.82,18.85,2.43,-1.74,9.52
14073,-2.76,130.23,19.24,2.44,-1.72,9.59
14078,-3.82,140.14,19.94,2.47,-1.69,9.69
14083,-7.75,158.02,21.86,2.55,-1.57,9.85
14088,-10.82,167.46,23.20,2.60,-1.50,9.94
14093,-12.21,170.67,23.73,2.62,-1.46,9.96
14099,-16.30,178.10,25.22,2.62,-1.39,9.98
14103,-20.22,184.25,26.79,2.56,-1.43,10.09
14108,-28.48,192.55,31.04,2.11,-1.85,10.75
14114,-32.01,195.25,33.68,1.77,-2.24,11.69
14119,-33.37,196.79,35.36,1.57,-2.49,12.40
14123,-34.22,200.43,37.85,1.38,-2.76,13.33
14128,-35.06,210.59,43.76,1.11,-3.20,15.38
14133,-34.41,225.70,51.53,1.01,-3.47,16.63
14138,-33.83,234.92,56.13,0.98,-3.57,17.04
14142,-32.77,245.70,61.48,0.96,-3.62,17.25
14149,-32.07,250.81,63.99,0.96,-3.64,17.31
14153,-30.30,261.08,69.06,0.94,-3.69,17.31
14158,-21.13,276.42,77.43,0.86,-3.89,17.10
14163,-16.23,275.23,78.17,1.00,-4.03,16.94
14167,-13.49,272.18,78.09,1.16,-4.05,16.86
14172,-7.74,260.77,77.84,1.62,-3.96,16.79
14177,-5.76,255.19,77.70,1.77,-3.84,16.82
14184,-2.93,243.07,77.49,2.03,-3.61,16.92
14188,-0.31,213.76,78.21,2.50,-3.35,16.95
14193,0.43,194.71,79.20,2.79,-3.28,16.93
14198,1.34,162.15,81.18,3.64,-3.34,16.68
14203,1.72,142.87,82.34,4.28,-3.45,16.36
14207,2.61,121.75,83.23,5.06,-3.53,16.04
14214,4.40,100.95,83.78,6.07,-3.62,15.60
14218,9.97,46.49,83.25,8.52,-3.77,13.75
14222,12.42,21.77,82.36,9.35,-3.84,12.33
14228,13.20,13.17,81.77,9.56,-3.86,11.65
14233,14.75,-3.89,79.75,9.84,-3.93,10.11
14238,15.31,-9.52,78.26,9.83,-3.97,9.53
14243,16.63,-21.76,72.57,9.71,-4.07,8.25
14249,16.92,-24.93,70.96,9.64,-4.10,7.99
14253,17.06,-26.56,70.16,9.60,-4.11,7.87
14258,17.72,-34.79,64.72,9.33,-4.17,7.32
14264,18.79,-49.34,51.74,8.73,-4.29,6.59
14268,19.12,-55.08,46.69,8.51,-4.33,6.41
14273,19.02,-61.18,40.86,8.25,-4.36,6.25
14278,18.21,-70.24,32.39,7.89,-4.37,6.22
14283,14.81,-86.57,17.30,7.39,-4.36,6.26
14287,12.32,-94.31,9.97,7.19,-4.34,6.33
14292,8.67,-103.94,0.94,6.95,-4.31,6.50
14299,6.97,-108.61,-3.30,6.83,-4.28,6.62
14303,5.13,-113.92,-8.11,6.68,-4.23,6.85
14308,1.90,-124.01,-16.63,6.42,-4.06,7.36
14313,-2.15,-138.84,-27.49,6.04,-3.59,8.32
14318,-4.32,-147.85,-33.17,5.83,-3.19,8.86
14322,-7.09,-160.69,-39.90,5.51,-2.56,9.51
14328,-8.15,-166.37,-42.07,5.36,-2.28,9.70
14333,-9.18,-172.16,-44.40,5.19,-2.00,9.90
14338,-10.99,-182.43,-47.73,4.88,-1.54,10.09
14342,-13.24,-196.94,-50.19,4.40,-1.00,10.15
14347,-14.62,-206.17,-50.91,4.04,-0.73,10.12
14353,-16.06,-215.97,-49.73,3.61,-0.52,9.97
14358,-16.75,-221.11,-48.16,3.32,-0.45,9.85
14364,-17.19,-224.22,-46.19,3.13,-0.42,9.77
14369,-17.69,-231.04,-38.76,2.68,-0.50,9.68
14373,-17.66,-235.29,-27.99,2.33,-0.73,9.83
14377,-17.40,-235.92,-24.69,2.27,-0.85,9.98
14383,-15.52,-237.24,-16.99,2.17,-1.26,10.76
14388,-13.82,-237.92,-13.53,2.14,-1.54,11.38
14393,-11.82,-238.55,-10.75,2.11,-1.82,12.06
14399,-7.89,-240.61,-7.70,2.03,-2.30,13.27
14403,-5.11,-243.15,-6.65,1.96,-2.58,14.06
14408,-3.56,-245.37,-6.55,1.90,-2.72,14.48
14412,-1.35,-250.89,-6.63,1.73,-2.92,15.01
14417,-0.57,-255.61,-7.02,1.57,-3.00,15.15
14422,-0.20,-259.99,-7.44,1.40,-3.06,15.19
14428,-0.16,-262.91,-7.66,1.25,-3.10,15.12
14433,-0.26,-264.96,-7.73,1.12,-3.14,15.03
14437,-0.80,-267.55,-7.24,0.87,-3.22,14.80
14442,-1.63,-268.72,-6.11,0.65,-3.33,14.59
14448,-2.84,-268.81,-4.68,0.49,-3.51,14.46
14453,-4.09,-268.34,-3.38,0.36,-3.75,14.36
14457,-6.25,-267.00,-1.63,0.12,-4.33,14.25
14462,-9.37,-264.35,0.42,-0.25,-5.50,14.12
14467,-10.56,-262.85,0.89,-0.43,-6.12,14.08
14472,-11.79,-260.84,1.01,-0.64,-6.78,14.06
14478,-12.98,-257.49,-0.25,-0.86,-7.40,14.10
14483,-13.70,-254.30,-2.72,-1.00,-7.72,14.21
14487,-14.93,-249.26,-7.33,-1.19,-7.94,14.42
14492,-17.59,-241.15,-17.52,-1.43,-8.03,14.85
14499,-25.41,-229.17,-37.16,-1.84,-7.71,15.50
14502,-27.50,-226.94,-41.44,-1.93,-7.58,15.62
14507,-35.21,-221.39,-54.39,-2.28,-6.96,15.88
14513,-39.74,-219.22,-60.73,-2.48,-6.47,15.94
14518,-47.25,-216.11,-70.14,-2.91,-5.36,15.87
14523,-51.52,-214.71,-74.97,-3.27,-4.37,15.71
14528,-55.55,-212.23,-79.40,-3.77,-3.00,15.44
14533,-58.30,-205.77,-82.60,-4.62,-0.88,14.92
14538,-58.22,-201.52,-83.04,-4.96,-0.23,14.74
14543,-56.92,-195.66,-82.85,-5.37,0.24,14.52
14548,-55.70,-191.77,-82.42,-5.65,0.38,14.37
14553,-52.28,-183.37,-80.86,-6.26,0.54,14.05
14558,-46.34,-171.86,-77.15,-7.37,0.43,13.36
14563,-42.25,-164.87,-74.11,-8.18,0.31,12.81
14567,-37.23,-157.41,-69.78,-9.29,0.07,12.00
14572,-34.06,-152.65,-66.73,-9.94,-0.10,11.55
14577,-31.12,-147.69,-63.43,-10.45,-0.25,11.22
14583,-27.14,-139.88,-57.80,-11.09,-0.46,10.84
14588,-21.34,-123.89,-47.06,-11.85,-0.77,10.52
14592,-17.21,-108.94,-37.58,-12.29,-1.00,10.38
14598,-13.86,-91.74,-27.66,-12.63,-1.25,10.29
14603,-11.80,-77.47,-20.16,-12.81,-1.46,10.24
14607,-9.99,-56.27,-11.29,-12.94,-1.85,10.10
14614,-9.73,-51.97,-9.75,-12.96,-1.94,10.04
14618,-9.49,-37.68,-6.02,-12.97,-2.24,9.57
14622,-9.54,-27.09,-4.39,-12.95,-2.46,8.61
14627,-9.23,-21.95,-4.10,-12.93,-2.52,7.78
14632,-8.04,-15.77,-4.12,-12.87,-2.57,6.50
14638,-7.03,-12.48,-4.44,-12.83,-2.59,5.89
14643,-3.83,-7.49,-5.11,-12.70,-2.58,5.09
14648,7.19,-0.62,-6.03,-10.33,-1.60,5.57
14652,10.07,0.34,-6.08,-9.10,-1.04,5.82
14657,16.56,1.19,-5.45,-5.17,0.83,6.34
14663,27.90,3.60,-3.44,3.34,4.99,7.02
14667,30.68,6.69,-2.96,5.57,6.09,7.05
14672,36.64,19.59,-2.26,10.04,8.42,7.25
14678,39.42,32.65,-2.30,11.67,9.37,7.63
14683,42.43,61.93,-2.49,12.57,10.25,8.52
14687,42.97,78.34,-2.47,12.01,10.33,9.05
14693,43.02,106.32,-2.34,10.70,10.27,10.02
14698,39.67,144.32,-0.77,7.49,9.36,11.05
14702,36.59,152.96,0.89,6.25,8.70,11.21
14707,32.65,158.32,3.17,5.18,7.85,11.21
14712,23.69,163.46,8.84,3.78,5.90,11.11
14717,18.12,162.75,12.51,3.30,4.49,11.02
14723,11.91,159.33,16.75,2.99,2.62,10.89
14728,5.01,152.98,21.66,2.91,0.05,10.70
14733,1.79,146.88,23.63,3.07,-1.68,10.61
14737,0.96,142.21,23.59,3.28,-2.56,10.62
14742,0.78,136.63,21.73,3.59,-3.21,11.01
14747,0.98,135.09,20.81,3.65,-3.25,11.19
14753,2.56,129.59,15.90,3.77,-3.29,12.36
14758,6.55,123.27,8.53,3.59,-2.79,14.35
14763,7.25,122.33,7.58,3.59,-2.63,14.56
14768,7.77,121.13,6.70,3.60,-2.49,14.64
14773,8.13,118.77,5.71,3.62,-2.34,14.64
14778,8.61,109.65,3.81,3.66,-2.09,14.44
14783,8.68,83.66,1.12,3.35,-1.86,13.52
14788,7.61,68.93,0.57,3.16,-1.69,12.94
14793,6.90,64.53,0.55,3.12,-1.63,12.75
14798,4.48,55.58,0.84,3.12,-1.44,12.30
14803,-1.31,45.44,1.83,3.32,-1.10,11.65
14808,-6.47,39.52,2.78,3.56,-0.96,11.05
14813,-9.74,35.13,3.45,3.71,-0.90,10.62
14818,-11.86,32.09,3.89,3.81,-0.92,10.31
14823,-12.01,31.88,3.91,3.82,-0.92,10.28
14828,-13.18,29.05,3.94,3.87,-1.00,10.07
14833,-14.43,23.05,3.78,3.92,-1.12,9.79
14838,-14.73,20.91,3.68,3.93,-1.17,9.70
14842,-14.97,17.89,3.44,3.94,-1.25,9.60
14848,-15.05,11.79,2.52,3.90,-1.49,9.42
14853,-14.97,10.44,2.22,3.86,-1.57,9.39
14857,-14.77,9.20,1.83,3.75,-1.70,9.33
14864,-14.69,9.03,1.74,3.70,-1.75,9.32
14868,-14.48,8.62,1.53,3.54,-1.83,9.32
14873,-13.89,8.58,1.47,3.36,-1.89,9.22
14879,-13.33,8.53,1.47,3.30,-1.90,9.11
14884,-12.85,8.42,1.51,3.29,-1.89,9.00
14888,-11.87,8.12,1.64,3.34,-1.87,8.78
14893,-11.50,7.99,1.70,3.40,-1.87,8.70
14899,-11.27,7.89,1.74,3.45,-1.88,8.64
14903,-10.86,7.74,1.89,3.58,-1.91,8.56
14908,-10.48,7.59,2.25,3.76,-1.98,8.48
14914,-10.34,7.54,2.63,3.76,-1.99,8.52
14918,-10.26,7.52,2.83,3.71,-2.00,8.58
14923,-10.16,7.49,3.05,3.62,-2.00,8.66
14928,-9.50,7.38,3.57,3.06,-2.00,9.11
14933,-8.83,7.28,3.58,2.81,-2.01,9.31
14937,-7.02,7.03,3.22,2.53,-2.01,9.55
14942,-6.56,6.96,3.10,2.49,-2.00,9.59
14948,-6.06,6.89,2.96,2.46,-2.00,9.62
14953,-5.61,6.82,2.82,2.44,-1.99,9.65
14957,-4.66,6.69,2.52,2.41,-1.96,9.68
14962,-3.83,6.57,2.22,2.41,-1.92,9.67
14968,-3.39,6.51,2.06,2.42,-1.89,9.66
14972,-2.64,6.38,1.68,2.43,-1.82,9.59
14979,-2.46,6.33,1.55,2.43,-1.80,9.54
14984,-2.33,6.22,1.35,2.42,-1.76,9.47
14988,-2.33,6.19,1.32,2.41,-1.75,9.45
14992,-2.40,6.08,1.30,2.39,-1.75,9.40
14998,-2.50,5.88,1.31,2.35,-1.74,9.35
15003,-2.72,5.50,1.43,2.32,-1.73,9.29
15008,-2.84,5.28,1.52,2.30,-1.72,9.28
15014,-2.91,5.17,1.58,2.30,-1.70,9.27
15018,-3.01,4.99,1.67,2.29,-1.68,9.28
15023,-3.07,4.88,1.73,2.28,-1.65,9.29
15028,-3.09,4.82,1.77,2.28,-1.64,9.31
15033,-3.21,4.77,1.86,2.25,-1.60,9.40
15038,-3.26,4.78,1.87,2.24,-1.59,9.43
15043,-3.32,4.81,1.87,2.24,-1.59,9.46
15049,-3.55,4.96,1.84,2.22,-1.61,9.55
15053,-3.68,5.03,1.81,2.22,-1.61,9.59
15057,-3.95,5.15,1.75,2.22,-1.63,9.64
15063,-4.04,5.17,1.71,2.22,-1.64,9.65
15067,-4.21,5.16,1.60,2.22,-1.67,9.66
15073,-4.27,5.15,1.56,2.21,-1.68,9.66
15079,-4.46,5.10,1.38,2.18,-1.73,9.65
15084,-4.82,4.96,1.06,2.10,-1.86,9.62
15088,-5.01,4.89,0.91,2.07,-1.89,9.58
15092,-5.13,4.83,0.82,2.09,-1.89,9.53
15099,-5.21,4.80,0.78,2.12,-1.87,9.49
15103,-5.28,4.80,0.75,2.19,-1.82,9.44
15107,-5.34,4.84,0.76,2.28,-1.77,9.38
15112,-5.37,4.91,0.79,2.32,-1.78,9.36
15118,-5.40,5.05,0.86,2.35,-1.79,9.34
15123,-5.41,5.09,0.89,2.36,-1.78,9.33
15128,-5.48,5.26,0.98,2.37,-1.74,9.28
15133,-5.67,5.78,1.21,2.39,-1.61,9.15
15138,-5.76,6.01,1.29,2.39,-1.54,9.09
15143,-5.98,6.64,1.50,2.39,-1.40,8.97
15147,-6.25,7.52,1.66,2.38,-1.70,9.00
15153,-6.32,7.75,1.67,2.38,-1.88,9.07
15158,-6.34,7.81,1.66,2.38,-1.95,9.09
15164,-6.40,7.96,1.62,2.38,-2.09,9.16
15168,-6.44,8.12,1.57,2.38,-2.19,9.22
15172,-6.52,8.45,1.44,2.38,-2.31,9.34
15178,-6.55,8.68,1.37,2.38,-2.35,9.39
15183,-6.55,9.06,1.27,2.38,-2.39,9.44
15188,-6.48,10.20,1.11,2.38,-2.38,9.51
15192,-6.45,10.58,1.07,2.38,-2.38,9.52
15199,-6.37,11.23,1.02,2.38,-2.36,9.53
15203,-6.18,12.41,0.98,2.34,-2.32,9.52
15208,-6.04,12.95,0.98,2.30,-2.31,9.50
15213,-5.92,13.37,0.97,2.27,-2.29,9.48
15218,-5.77,13.92,0.98,2.23,-2.26,9.44
15223,-5.63,14.41,1.02,2.19,-2.22,9.39
15229,-5.51,14.84,1.06,2.16,-2.19,9.35
15233,-5.35,15.52,1.16,2.14,-2.12,9.28
15238,-5.24,16.11,1.27,2.12,-2.08,9.24
15243,-4.99,17.34,1.51,2.11,-2.07,9.20
15248,-4.74,18.60,1.69,2.11,-2.12,9.22
15253,-4.61,19.26,1.76,2.11,-2.18,9.26
15258,-4.53,19.76,1.79,2.11,-2.19,9.28
15263,-4.40,20.66,1.81,2.12,-2.22,9.32
15268,-4.33,21.14,1.84,2.12,-2.22,9.32
15272,-4.17,22.05,1.92,2.13,-2.23,9.32
15277,-3.78,23.77,2.27,2.17,-2.25,9.31
15283,-3.54,24.62,2.53,2.20,-2.27,9.30
15288,-3.29,25.67,2.87,2.23,-2.28,9.28
15293,-3.02,26.77,3.34,2.26,-2.29,9.26
15298,-2.82,27.67,3.72,2.28,-2.29,9.25
15303,-2.18,31.27,5.26,2.31,-2.25,9.21
15308,-1.52,35.32,6.92,2.30,-2.25,9.24
15313,-1.30,36.95,7.55,2.30,-2.25,9.26
15317,-1.09,38.75,8.23,2.29,-2.25,9.29
15323,-0.97,39.68,8.57,2.29,-2.26,9.33
15328,-0.89,40.25,8.76,2.28,-2.27,9.37
15333,-0.81,40.98,9.02,2.27,-2.29,9.41
15337,-0.60,43.19,9.83,2.26,-2.31,9.47
15343,-0.25,49.90,12.11,2.21,-2.40,9.69
15348,-0.23,57.32,14.41,2.15,-2.49,9.87
15353,-0.48,60.84,15.38,2.12,-2.51,9.92
15358,-0.94,64.28,16.29,2.10,-2.54,9.93
15362,-1.75,69.20,17.41,2.09,-2.55,9.92
15367,-2.33,72.16,17.96,2.09,-2.55,9.85
15372,-2.64,73.91,18.25,2.10,-2.54,9.79
15379,-2.91,76.81,18.63,2.10,-2.52,9.69
15383,-3.11,82.91,19.22,2.12,-2.46,9.47
15388,-3.06,87.41,19.52,2.13,-2.43,9.33
15393,-2.75,93.14,19.79,2.16,-2.38,9.18
15398,-2.15,102.66,20.15,2.26,-2.33,9.06
15403,-1.68,110.14,20.39,2.38,-2.31,9.03
15408,-1.43,113.94,20.56,2.46,-2.29,9.01
15413,-1.26,117.45,20.73,2.55,-2.29,9.05
15418,-1.26,120.20,20.85,2.62,-2.29,9.11
15423,-4.42,145.26,23.92,3.08,-2.45,9.80
15428,-7.33,152.88,25.55,3.17,-2.55,10.10
15433,-8.57,155.62,26.20,3.20,-2.59,10.22
15438,-11.14,160.87,27.50,3.25,-2.66,10.43
15443,-20.90,176.46,31.95,3.34,-2.87,11.06
15448,-25.13,182.14,34.08,3.36,-2.94,11.36
15453,-32.75,191.52,38.62,3.37,-3.02,11.98
15458,-36.66,198.48,42.88,3.43,-2.88,12.66
15463,-37.67,201.15,44.61,3.46,-2.78,12.94
15468,-38.61,205.57,47.35,3.52,-2.62,13.28
15472,-39.62,212.24,51.27,3.63,-2.33,13.64
15478,-39.94,216.96,53.99,3.72,-2.12,13.85
15483,-39.96,219.64,55.55,3.76,-2.00,13.96
15488,-38.79,242.31,69.28,4.05,-1.40,14.78
15492,-37.83,253.78,76.42,4.16,-1.22,15.11
15499,-36.21,262.67,82.27,4.19,-1.29,15.40
15502,-32.09,275.65,91.23,4.19,-1.69,15.83
15508,-29.46,279.88,94.30,4.22,-1.90,16.01
15514,-27.99,281.36,95.73,4.27,-2.02,16.09
15518,-24.14,281.56,97.72,4.49,-2.23,16.26
15523,-18.54,275.48,97.86,5.19,-2.20,16.37
15528,-13.54,266.13,97.09,6.02,-2.15,16.42
15533,-4.87,236.65,91.40,7.57,-2.32,16.29
15538,0.35,215.35,86.99,8.25,-2.49,16.01
15543,6.25,188.91,81.70,8.83,-2.69,15.28
15551,17.67,139.15,73.67,9.46,-2.63,13.14
15555,22.67,117.66,70.80,9.64,-2.54,12.04
15559,28.64,92.35,68.00,9.80,-2.41,10.76
15564,36.69,56.53,65.10,9.98,-2.20,9.03
15568,39.30,43.59,64.35,10.03,-2.15,8.53
15573,43.58,20.29,63.15,10.12,-2.08,7.77
15579,45.97,1.67,62.48,10.16,-2.02,7.42
15584,47.13,-10.62,62.20,10.15,-1.96,7.26
15588,47.56,-20.42,61.84,10.12,-1.92,7.23
15593,47.41,-33.36,60.67,9.92,-1.86,7.36
15598,46.75,-42.23,59.21,9.65,-1.87,7.55
15603,45.24,-53.26,56.59,9.15,-1.93,7.85
15607,43.79,-59.92,55.12,8.87,-1.99,8.03
15613,40.98,-69.90,53.03,8.47,-2.12,8.26
15618,39.03,-75.45,52.04,8.27,-2.22,8.35
15623,31.91,-93.82,48.60,7.65,-2.62,8.61
15628,30.73,-96.61,48.04,7.55,-2.69,8.64
15633,27.64,-103.92,46.44,7.30,-2.89,8.71
15638,25.48,-109.64,45.07,7.10,-3.03,8.78
15643,18.12,-131.88,37.53,6.28,-3.48,9.07
15648,16.44,-138.67,34.34,6.02,-3.56,9.17
15653,14.49,-148.03,29.31,5.65,-3.62,9.32
15658,12.61,-160.97,21.10,5.09,-3.58,9.49
15663,10.86,-174.56,11.38,4.48,-3.45,9.62
15668,10.62,-176.34,10.05,4.40,-3.42,9.63
15673,7.63,-194.34,-2.92,3.63,-3.14,9.69
15678,4.07,-207.72,-11.23,3.12,-2.98,9.68
15683,1.43,-215.24,-15.15,2.85,-2.91,9.66
15688,-0.37,-219.21,-17.05,2.69,-2.89,9.63
15693,-4.65,-226.34,-20.26,2.39,-2.86,9.54
15698,-10.16,-232.31,-23.56,2.10,-2.88,9.47
15703,-11.63,-233.42,-24.34,2.04,-2.89,9.46
15708,-13.78,-234.70,-25.53,1.95,-2.92,9.46
15712,-16.52,-235.66,-27.24,1.86,-2.96,9.69
15718,-18.09,-236.22,-28.38,1.80,-2.98,10.01
15723,-19.64,-236.96,-29.89,1.72,-2.99,10.44
15728,-20.38,-237.37,-30.75,1.68,-2.97,10.73
15732,-21.92,-238.26,-32.56,1.60,-2.90,11.32
15737,-22.26,-238.45,-32.93,1.58,-2.89,11.43
15743,-24.90,-241.05,-36.21,1.42,-2.75,12.21
15748,-28.39,-245.99,-40.82,1.13,-2.53,13.16
15753,-30.85,-250.38,-44.02,0.87,-2.36,13.75
15758,-31.43,-251.54,-44.73,0.79,-2.32,13.92
15763,-32.29,-254.38,-45.60,0.54,-2.24,14.30
15768,-32.30,-254.66,-45.53,0.50,-2.23,14.35
15773,-32.09,-255.19,-44.98,0.39,-2.21,14.43
15779,-31.02,-255.62,-43.14,0.23,-2.19,14.53
15784,-29.80,-255.55,-41.30,0.10,-2.19,14.54
15788,-25.74,-254.58,-36.98,-0.13,-2.25,14.54
15793,-20.13,-252.51,-32.85,-0.36,-2.46,14.56
15801,-15.65,-250.46,-29.92,-0.54,-2.68,14.58
15804,-13.32,-249.24,-28.54,-0.63,-2.81,14.61
15808,-8.50,-246.35,-25.72,-0.85,-3.10,14.66
15812,-4.40,-243.01,-22.73,-1.17,-3.41,14.70
15817,-1.45,-239.75,-20.27,-1.57,-3.75,14.72
15822,-0.68,-237.81,-18.93,-1.91,-4.00,14.72
15829,-0.91,-237.09,-18.54,-2.05,-4.09,14.72
15833,-2.11,-235.46,-18.02,-2.38,-4.32,14.70
15837,-5.83,-232.70,-17.52,-3.06,-4.79,14.64
15842,-9.17,-230.19,-17.55,-3.54,-5.05,14.56
15848,-12.91,-226.96,-17.67,-4.03,-5.24,14.41
15853,-20.69,-216.45,-17.92,-5.00,-5.39,13.95
15857,-23.77,-211.37,-18.01,-5.32,-5.41,13.77
15864,-26.65,-206.19,-18.12,-5.59,-5.41,13.61
15868,-34.87,-188.62,-18.47,-6.24,-5.33,13.18
15872,-44.39,-163.67,-19.34,-6.91,-5.09,12.69
15878,-47.98,-152.92,-19.93,-7.15,-4.95,12.51
15883,-60.10,-103.02,-24.65,-8.26,-4.12,11.64
15887,-61.86,-94.15,-26.02,-8.49,-3.95,11.48
15893,-63.88,-84.21,-28.32,-8.83,-3.74,11.30
15899,-65.69,-70.06,-33.04,-9.27,-3.43,11.04
15903,-60.06,-49.08,-54.22,-10.88,-2.85,10.62
15908,-58.55,-48.38,-57.14,-11.08,-2.82,10.62
15913,-57.62,-48.13,-58.74,-11.19,-2.80,10.62
15918,-50.62,-45.03,-65.10,-11.78,-2.66,10.63
15923,-45.31,-40.38,-67.36,-12.10,-2.54,10.66
15928,-42.07,-36.86,-67.99,-12.29,-2.47,10.68
15934,-37.06,-30.36,-68.27,-12.55,-2.36,10.69
15938,-25.60,-10.12,-68.32,-13.03,-2.13,10.70
15944,-23.48,-5.48,-68.14,-13.10,-2.10,10.69
15948,-20.58,2.05,-67.80,-13.19,-2.06,10.64
15953,-17.15,16.78,-67.30,-13.27,-2.03,10.54
15958,-15.04,31.05,-66.92,-13.31,-2.02,10.43
15963,-13.82,42.97,-67.33,-13.29,-2.03,10.36
15968,-10.82,74.19,-72.64,-12.38,-1.94,10.03
15973,-9.07,88.04,-76.69,-10.51,-1.66,9.64
15978,-5.90,102.71,-82.04,-6.33,-0.85,8.92
15983,-2.70,111.38,-85.40,-2.58,0.14,8.42
15988,0.81,117.69,-86.80,0.35,1.14,8.30
15993,13.74,135.81,-82.74,7.11,4.56,9.36
15998,17.11,141.70,-78.88,7.90,5.40,9.99
16003,21.36,150.70,-71.83,8.43,6.51,10.97
16008,24.49,161.93,-61.81,7.90,7.53,12.09
16014,25.77,171.82,-51.41,6.81,8.08,13.10
16018,25.48,179.55,-41.69,5.54,8.16,13.98
16023,23.98,188.47,-25.95,3.25,7.93,15.27
16028,20.40,188.60,-5.46,1.52,6.86,16.40
16033,15.91,180.54,8.41,1.30,5.69,16.47
16038,12.07,173.79,16.27,1.36,4.58,16.28
16043,9.28,169.38,20.21,1.49,3.67,16.01
16050,2.68,160.21,26.20,1.85,0.99,15.16
16053,-0.10,157.11,27.85,2.02,-0.60,14.73
16058,-3.16,152.76,28.40,2.21,-2.81,14.22
16064,-4.78,149.15,26.63,2.32,-4.49,13.92
16068,-5.26,145.16,23.76,2.35,-5.40,13.81
16073,-5.33,142.13,21.54,2.36,-5.71,13.79
16079,-5.23,127.55,13.23,2.36,-5.87,13.73
16084,-5.00,118.46,9.64,2.35,-5.63,13.69
16087,-4.62,96.97,3.24,2.33,-4.89,13.53
16093,-5.05,66.86,-0.79,2.40,-3.35,12.83
16098,-5.55,60.78,-0.84,2.45,-2.98,12.59
16103,-7.99,46.25,-0.28,2.66,-2.05,11.76
16108,-9.17,42.26,0.44,2.75,-1.82,11.44
16115,-10.39,38.52,1.34,2.83,-1.66,11.14
16120,-11.02,36.17,1.86,2.87,-1.62,10.97
16124,-12.37,30.41,3.11,2.95,-1.58,10.59
16128,-13.28,24.58,4.34,3.02,-1.55,10.24
16133,-13.12,20.77,4.86,3.06,-1.52,10.05
16138,-12.66,17.35,5.16,3.10,-1.47,9.91
16144,-12.22,15.73,5.13,3.14,-1.43,9.84
16149,-11.52,13.92,4.76,3.20,-1.35,9.75
16152,-11.35,13.19,4.51,3.22,-1.33,9.72
16158,-11.34,11.06,3.40,3.32,-1.26,9.62
16163,-11.80,9.91,2.70,3.38,-1.25,9.57
16167,-12.26,9.36,2.36,3.40,-1.27,9.53
16172,-12.79,8.79,2.11,3.44,-1.30,9.49
16179,-13.59,8.08,1.91,3.50,-1.38,9.43
16183,-14.28,7.17,1.89,3.54,-1.45,9.36
16187,-14.95,6.20,1.89,3.57,-1.55,9.31
16194,-15.17,5.83,1.90,3.57,-1.61,9.29
16199,-15.04,5.52,1.93,3.54,-1.65,9.29
16204,-14.73,5.26,1.94,3.49,-1.70,9.31
16208,-13.58,4.90,1.92,3.36,-1.92,9.37
16213,-12.77,4.83,1.88,3.28,-2.04,9.40
16218,-9.47,4.95,1.66,3.08,-2.38,9.48
16223,-7.22,5.15,1.52,2.99,-2.49,9.53
16229,-5.24,5.42,1.51,2.93,-2.49,9.55
16233,-3.80,5.67,1.59,2.89,-2.40,9.56
16238,-2.69,5.93,1.72,2.86,-2.27,9.55
16244,-1.11,6.45,1.96,2.81,-1.99,9.52
16248,-0.54,6.69,2.06,2.78,-1.85,9.50
16252,-0.14,6.88,2.14,2.76,-1.73,9.49
16257,0.25,7.07,2.21,2.72,-1.62,9.49
16263,0.66,7.28,2.29,2.68,-1.49,9.50
16268,0.78,7.35,2.30,2.66,-1.45,9.51
16273,0.80,7.35,2.30,2.66,-1.45,9.52
16278,0.78,7.34,2.28,2.66,-1.46,9.53
16283,0.74,7.30,2.25,2.67,-1.48,9.53
16288,0.67,7.26,2.23,2.68,-1.53,9.52
16293,0.60,7.22,2.22,2.68,-1.59,9.51
16299,0.56,7.21,2.30,2.65,-1.65,9.49
16303,0.56,7.21,2.39,2.62,-1.68,9.47
16308,0.61,7.26,2.55,2.57,-1.70,9.43
16313,0.74,7.36,2.76,2.50,-1.72,9.39
16318,1.04,7.59,3.00,2.43,-1.71,9.35
16323,1.19,7.71,3.10,2.41,-1.70,9.34
16328,1.52,7.97,3.27,2.38,-1.66,9.35
16332,1.72,8.17,3.39,2.38,-1.64,9.35
16338,1.79,8.44,3.56,2.41,-1.61,9.36
16343,1.75,8.63,3.65,2.44,-1.59,9.37
16348,1.63,8.85,3.71,2.47,-1.58,9.38
16353,1.35,9.15,3.76,2.51,-1.55,9.40
16358,0.74,9.59,3.70,2.53,-1.50,9.43
16363,0.32,9.81,3.60,2.53,-1.46,9.45
16368,-0.21,9.94,3.39,2.49,-1.40,9.47
16373,-0.48,9.91,3.23,2.46,-1.38,9.48
16379,-0.65,9.84,3.10,2.43,-1.38,9.48
16383,-0.88,9.63,2.89,2.38,-1.38,9.49
16388,-1.16,9.15,2.56,2.31,-1.43,9.48
16393,-1.24,8.95,2.46,2.29,-1.44,9.48
16398,-1.42,8.42,2.23,2.24,-1.47,9.48
16403,-1.50,8.12,2.13,2.22,-1.49,9.47
16408,-1.62,7.67,2.01,2.22,-1.51,9.45
16413,-1.76,7.16,1.91,2.23,-1.54,9.38
16418,-1.89,6.65,1.86,2.28,-1.60,9.27
16422,-1.92,6.53,1.86,2.29,-1.61,9.24
16429,-1.95,6.33,1.86,2.30,-1.63,9.19
16432,-1.97,6.17,1.87,2.31,-1.65,9.16
16437,-1.97,5.97,1.89,2.32,-1.68,9.18
16444,-1.96,5.88,1.91,2.32,-1.70,9.21
16448,-1.86,5.76,1.92,2.36,-1.76,9.38
16453,-1.83,5.74,1.92,2.37,-1.77,9.41
16459,-1.76,5.70,1.91,2.42,-1.79,9.47
16466,-1.64,5.67,1.88,2.51,-1.81,9.53
16471,-1.56,5.72,1.87,2.56,-1.79,9.49
16474,-1.49,5.90,1.83,2.55,-1.76,9.43
16478,-1.47,6.01,1.79,2.53,-1.74,9.41
16483,-1.44,6.16,1.74,2.49,-1.72,9.39
16488,-1.42,6.30,1.69,2.47,-1.70,9.37
16494,-1.40,6.54,1.58,2.45,-1.68,9.35
16499,-1.41,6.75,1.49,2.44,-1.67,9.35
16503,-1.52,7.36,1.27,2.44,-1.64,9.36
16508,-1.78,8.02,1.11,2.44,-1.62,9.37
16513,-2.07,8.52,1.03,2.43,-1.62,9.39
16518,-2.34,9.00,0.97,2.42,-1.62,9.41
16523,-3.16,10.40,0.88,2.38,-1.64,9.47
16528,-3.32,10.72,0.86,2.38,-1.65,9.49
16534,-3.59,11.44,0.85,2.36,-1.66,9.52
16538,-3.78,12.29,0.85,2.34,-1.68,9.55
16544,-3.89,13.21,0.85,2.32,-1.71,9.58
16549,-3.92,13.95,0.86,2.30,-1.74,9.59
16552,-3.93,15.15,0.87,2.26,-1.77,9.60
16557,-3.89,16.47,0.91,2.22,-1.81,9.60
16563,-3.85,17.78,0.98,2.18,-1.83,9.60
16567,-3.83,18.26,1.04,2.17,-1.83,9.60
16573,-3.80,19.07,1.18,2.16,-1.84,9.60
16579,-3.78,19.76,1.31,2.16,-1.83,9.59
16582,-3.74,20.86,1.59,2.15,-1.83,9.55
16588,-3.70,22.07,1.94,2.12,-1.82,9.49
16592,-3.67,22.95,2.20,2.10,-1.82,9.45
16598,-3.59,24.41,2.65,2.06,-1.81,9.42
16602,-3.47,25.77,3.08,2.02,-1.81,9.40
16607,-3.27,27.47,3.61,1.96,-1.80,9.41
16614,-2.95,29.74,4.30,1.89,-1.78,9.42
16618,-2.62,31.57,4.79,1.80,-1.77,9.43
16622,-2.41,32.67,5.05,1.74,-1.77,9.44
16627,-2.24,33.53,5.23,1.69,-1.78,9.45
16633,-1.97,34.72,5.44,1.60,-1.80,9.47
16637,-1.81,35.88,5.65,1.55,-1.81,9.51
16643,-1.67,38.05,6.04,1.51,-1.83,9.59
16648,-1.59,40.27,6.39,1.49,-1.84,9.64
16652,-1.59,41.48,6.56,1.49,-1.85,9.68
16657,-1.77,47.21,7.35,1.61,-1.91,9.77
16663,-1.88,49.84,7.68,1.67,-1.94,9.79
16667,-2.31,56.50,8.66,1.90,-2.04,9.77
16673,-2.52,59.21,9.16,2.00,-2.08,9.74
16679,-2.69,61.60,9.68,2.07,-2.12,9.69
16684,-2.94,65.75,10.66,2.17,-2.17,9.62
16688,-3.05,69.04,11.50,2.21,-2.20,9.57
16693,-3.10,70.86,12.00,2.22,-2.22,9.55
16698,-3.14,84.57,15.24,2.23,-2.28,9.47
16703,-3.12,88.91,15.74,2.23,-2.28,9.45
16708,-3.07,91.34,16.15,2.23,-2.26,9.44
16714,-2.94,94.70,16.56,2.22,-2.23,9.44
16718,-2.88,97.09,16.73,2.22,-2.22,9.43
16723,-1.93,112.94,17.07,2.13,-2.19,9.39
16727,-1.79,115.19,17.02,2.11,-2.19,9.40
16732,-1.79,119.12,17.10,2.08,-2.17,9.43
16737,-3.39,125.12,17.85,2.04,-2.06,9.55
16744,-10.03,142.07,21.01,1.91,-1.93,9.93
16748,-12.89,148.56,22.36,1.84,-1.92,10.09
16753,-21.07,166.18,26.05,1.54,-2.09,10.49
16759,-23.18,170.62,26.97,1.44,-2.17,10.61
16763,-26.35,177.53,28.27,1.26,-2.33,10.85
16768,-29.66,184.79,29.49,1.01,-2.56,11.26
16773,-31.18,187.79,29.75,0.86,-2.66,12.27
16778,-31.40,188.49,29.79,0.84,-2.67,12.62
16783,-31.70,192.97,31.76,0.82,-2.71,14.13
16788,-31.82,196.18,33.78,0.82,-2.72,14.86
16793,-32.04,201.84,37.21,0.87,-2.74,15.50
16799,-32.38,213.76,44.49,1.09,-2.74,16.20
16803,-32.81,229.03,53.89,1.50,-2.72,16.70
16808,-33.38,248.80,66.05,2.24,-2.61,17.06
16813,-33.65,260.42,73.39,2.70,-2.56,17.20
16818,-33.94,273.52,81.75,3.19,-2.54,17.30
16823,-34.03,277.27,84.10,3.20,-2.62,17.30
16829,-34.03,280.02,86.19,3.16,-2.86,17.28
16833,-33.76,279.36,86.56,3.21,-2.98,17.25
16838,-32.14,273.89,86.52,3.35,-3.03,17.21
16843,-29.64,264.62,85.85,3.58,-2.81,17.19
16848,-25.16,245.86,84.65,4.03,-2.22,17.17
16853,-22.69,233.56,83.89,4.28,-2.01,17.15
16858,-18.94,212.40,82.66,4.65,-1.76,17.11
16864,-14.33,180.10,81.09,5.31,-1.76,17.03
16868,-9.06,138.47,79.34,6.42,-2.17,16.79
16873,-5.78,122.45,78.51,7.08,-2.25,16.49
16878,-1.28,105.07,77.43,7.83,-2.28,15.97
16883,1.17,97.68,76.79,8.13,-2.25,15.65
16888,6.17,86.40,75.44,8.63,-2.11,14.85
16893,11.42,73.76,74.03,8.99,-1.91,13.88
16898,25.53,30.10,70.43,9.37,-1.43,10.66
16903,27.42,22.63,70.06,9.38,-1.35,10.20
16908,32.49,1.15,69.20,9.17,-1.14,8.90
16913,36.01,-15.13,68.90,8.91,-0.97,8.05
16918,40.02,-36.40,68.72,8.42,-0.75,7.16
16923,41.18,-43.67,68.73,8.17,-0.70,6.94
16928,40.84,-47.12,68.74,7.94,-0.88,6.96
16933,40.59,-47.50,68.64,7.89,-0.98,6.98
16938,39.41,-48.95,68.00,7.72,-1.42,7.07
16943,38.52,-50.39,67.16,7.63,-1.71,7.13
16948,36.87,-53.57,64.56,7.49,-2.23,7.22
16953,34.32,-60.70,59.36,7.28,-2.93,7.37
16958,32.64,-68.28,54.83,7.15,-3.33,7.47
16963,31.32,-74.87,51.10,7.05,-3.61,7.55
16968,26.35,-102.85,36.98,6.73,-4.33,7.87
16972,24.77,-111.00,32.91,6.64,-4.45,7.98
16978,23.25,-117.58,29.41,6.56,-4.51,8.07
16983,20.10,-126.66,23.91,6.38,-4.54,8.23
16988,14.62,-139.17,15.57,6.10,-4.51,8.42
16993,12.87,-142.70,12.90,6.01,-4.49,8.47
16998,2.96,-161.68,-3.29,5.47,-4.29,8.67
17003,1.67,-164.20,-5.66,5.39,-4.25,8.69
17008,-2.62,-172.54,-13.79,5.13,-4.07,8.74
17013,-9.19,-185.61,-27.15,4.69,-3.66,8.78
17018,-12.93,-193.21,-35.41,4.43,-3.33,8.79
17023,-15.27,-197.82,-40.61,4.26,-3.10,8.81
17029,-17.93,-202.53,-45.61,4.09,-2.82,8.84
17033,-19.60,-204.85,-47.45,4.01,-2.71,8.91
17038,-21.73,-207.60,-49.47,3.91,-2.60,9.14
17043,-24.24,-211.13,-51.18,3.78,-2.51,9.47
17047,-27.59,-215.91,-52.93,3.62,-2.42,10.03
17053,-30.08,-220.60,-54.28,3.46,-2.33,10.58
17058,-31.94,-224.72,-55.27,3.33,-2.24,11.08
17063,-33.33,-228.98,-56.12,3.20,-2.13,11.57
17068,-34.42,-234.55,-56.92,3.04,-1.95,12.18
17073,-34.64,-237.12,-57.18,2.95,-1.85,12.47
17079,-34.49,-239.92,-57.12,2.85,-1.76,12.77
17084,-34.05,-242.83,-56.70,2.68,-1.71,13.16
17088,-33.66,-244.45,-56.21,2.56,-1.69,13.38
17093,-32.08,-248.51,-54.07,2.27,-1.69,13.91
17098,-31.39,-249.91,-53.11,2.17,-1.70,14.08
17103,-30.21,-252.10,-51.50,2.02,-1.72,14.31
17108,-27.35,-256.10,-47.77,1.76,-1.79,14.68
17114,-25.31,-258.59,-45.20,1.58,-1.85,14.89
17118,-19.27,-263.34,-37.88,1.13,-2.37,15.24
17123,-18.06,-263.69,-36.53,1.00,-2.72,15.28
17128,-17.25,-263.71,-35.70,0.86,-3.08,15.31
17133,-15.50,-263.53,-33.73,0.47,-4.27,15.38
17137,-14.75,-263.20,-32.32,0.18,-5.00,15.43
17143,-14.41,-262.87,-31.57,0.03,-5.37,15.45
17148,-13.59,-258.75,-27.28,-1.11,-6.61,15.48
17153,-13.51,-257.13,-26.38,-1.41,-6.74,15.47
17159,-13.42,-253.59,-25.40,-1.96,-6.87,15.44
17163,-13.63,-241.89,-25.59,-3.25,-6.94,15.31
17168,-14.36,-235.81,-27.75,-3.68,-6.91,15.24
17173,-16.87,-225.36,-34.06,-4.20,-6.78,15.09
17178,-22.92,-214.21,-44.54,-4.51,-6.28,14.71
17183,-26.81,-209.79,-50.48,-4.73,-5.85,14.42
17188,-35.66,-203.27,-62.79,-5.41,-4.61,13.58
17193,-40.29,-200.52,-69.49,-6.07,-3.88,13.08
17198,-44.13,-198.54,-75.20,-6.86,-3.22,12.61
17203,-49.10,-192.62,-83.67,-8.36,-2.42,12.00
17208,-50.80,-185.52,-87.71,-9.35,-2.11,11.76
17213,-50.92,-175.69,-89.97,-10.03,-1.94,11.66
17218,-50.60,-169.68,-90.68,-10.33,-1.86,11.64
17223,-48.27,-153.81,-90.91,-10.98,-1.58,11.66
17228,-44.56,-139.53,-90.31,-11.50,-1.32,11.70
17233,-38.56,-122.43,-88.38,-12.35,-1.00,11.75
17238,-34.25,-111.31,-86.47,-12.94,-0.82,11.78
17244,-31.09,-102.64,-84.62,-13.36,-0.72,11.80
17250,-27.12,-92.00,-81.17,-13.90,-0.62,11.81
17254,-21.28,-73.04,-73.16,-14.63,-0.59,11.81
17258,-15.70,-42.05,-55.75,-15.20,-0.67,11.65
17264,-15.22,-36.85,-52.36,-15.23,-0.71,11.55
17268,-14.97,-28.91,-47.29,-15.22,-0.80,11.35
17273,-15.11,-22.66,-43.48,-15.19,-0.89,11.13
17279,-15.37,-14.18,-38.64,-15.09,-1.05,10.72
17283,-15.60,-3.12,-34.65,-14.77,-1.34,10.40
17287,-15.72,4.66,-32.83,-14.29,-1.60,10.26
17294,-15.74,14.50,-31.70,-13.50,-1.94,10.21
17298,-15.48,25.20,-31.01,-12.04,-2.33,10.27
17303,-14.54,45.82,-30.64,-8.73,-2.99,10.21
17308,-12.25,75.79,-30.81,-2.94,-3.73,9.58
17313,-9.61,94.64,-30.43,1.09,-3.93,8.92
17318,-7.33,106.93,-29.60,3.53,-3.76,8.46
17323,-5.68,114.93,-28.80,4.66,-3.48,8.33
17328,-3.63,123.59,-26.81,5.80,-2.80,8.70
17333,0.01,142.57,-20.56,5.54,-1.19,10.51
17338,1.53,152.07,-16.84,5.01,-0.42,11.69
17344,4.07,168.88,-8.82,3.88,0.56,13.71
17349,5.19,178.73,-3.44,3.11,0.98,14.93
17352,5.69,190.22,3.71,2.30,1.30,16.35
17359,5.33,197.97,9.02,1.84,1.47,17.28
17364,3.69,204.82,16.76,1.33,1.51,18.47
17367,0.37,204.09,21.59,1.15,1.33,19.02
17372,-1.81,197.66,23.36,1.18,1.03,19.23
17379,-2.87,189.65,23.49,1.34,0.80,19.16
17383,-4.63,160.31,21.31,2.19,0.07,18.24
17387,-5.05,139.06,18.65,2.82,-0.33,16.90
17394,-5.19,118.59,15.00,3.41,-0.59,15.03
17398,-5.18,92.64,9.80,3.96,-0.75,12.72
17402,-5.14,79.64,6.99,4.17,-0.79,11.60
17408,-5.19,58.87,2.70,4.42,-0.80,10.15
17413,-5.38,45.20,0.06,4.49,-0.79,9.59
17418,-5.51,41.50,-0.57,4.48,-0.83,9.50
17423,-5.71,37.45,-1.22,4.45,-0.92,9.43
17429,-5.81,34.82,-1.39,4.32,-1.34,9.52
17433,-5.78,34.29,-1.34,4.27,-1.53,9.57
17438,-5.69,33.26,-1.15,4.16,-1.89,9.66
17443,-5.51,32.49,-0.94,4.08,-2.17,9.72
17448,-4.92,29.17,-0.42,3.91,-2.55,9.83
17452,-4.26,24.52,-0.01,3.81,-2.63,9.87
17459,-3.79,21.62,0.22,3.78,-2.51,9.87
17464,-3.42,19.44,0.37,3.76,-2.36,9.87
17468,-2.96,17.03,0.54,3.74,-2.14,9.85
17473,-2.79,16.19,0.60,3.73,-2.04,9.84
17478,-2.49,14.52,0.70,3.71,-1.84,9.81
17483,-2.19,12.05,0.79,3.65,-1.54,9.71
17488,-2.00,10.56,0.84,3.61,-1.37,9.63
17495,-2.16,9.68,0.83,3.58,-1.29,9.57
17498,-2.83,8.53,0.75,3.51,-1.28,9.50
17503,-3.50,7.81,0.65,3.44,-1.29,9.48
17508,-3.85,7.47,0.59,3.39,-1.32,9.48
17513,-4.12,7.22,0.53,3.34,-1.35,9.48
17518,-4.42,6.95,0.47,3.28,-1.39,9.48
17523,-4.91,6.52,0.37,3.17,-1.48,9.49
17529,-5.23,6.34,0.33,3.10,-1.53,9.49
17533,-5.43,6.26,0.31,3.07,-1.57,9.50
17537,-6.03,6.13,0.32,2.95,-1.65,9.50
17543,-6.19,6.12,0.34,2.92,-1.66,9.50
17548,-6.43,6.11,0.38,2.86,-1.69,9.49
17553,-6.54,6.15,0.49,2.81,-1.73,9.47
17558,-6.55,6.18,0.61,2.80,-1.72,9.47
17563,-6.55,6.18,0.66,2.81,-1.70,9.46
17568,-6.58,6.19,0.80,2.83,-1.60,9.42
17573,-6.63,6.20,0.97,2.86,-1.50,9.38
17579,-6.91,6.24,1.69,2.98,-1.06,9.18
17583,-7.06,6.26,2.03,3.03,-0.87,9.09
17588,-7.23,6.29,2.39,3.06,-0.70,9.02
17595,-7.46,6.23,2.98,2.91,-0.84,9.13
17600,-7.46,6.20,3.03,2.85,-0.91,9.19
17604,-7.45,6.12,3.08,2.77,-1.05,9.27
17608,-7.21,5.93,2.89,2.63,-1.30,9.42
17614,-7.00,5.79,2.69,2.55,-1.44,9.51
17618,-6.25,5.35,1.99,2.40,-1.72,9.67
17623,-6.07,5.21,1.80,2.38,-1.76,9.70
17629,-5.94,5.16,1.67,2.37,-1.79,9.71
17634,-5.85,5.11,1.57,2.37,-1.79,9.71
17638,-5.68,4.91,1.37,2.41,-1.78,9.70
17644,-5.58,4.72,1.25,2.44,-1.77,9.68
17648,-5.52,4.42,1.20,2.49,-1.75,9.65
17653,-5.53,4.04,1.20,2.56,-1.70,9.59
17658,-5.56,3.87,1.22,2.58,-1.67,9.57
17663,-5.58,3.76,1.23,2.59,-1.67,9.55
17668,-5.61,3.61,1.28,2.59,-1.66,9.50
17673,-5.59,3.57,1.32,2.59,-1.68,9.46
17680,-5.58,3.57,1.33,2.59,-1.69,9.44
17684,-5.57,3.58,1.33,2.59,-1.69,9.43
17687,-5.52,3.58,1.33,2.60,-1.71,9.40
17694,-5.45,3.59,1.32,2.60,-1.73,9.37
17697,-5.39,3.62,1.28,2.61,-1.74,9.34
17702,-5.38,3.65,1.27,2.62,-1.74,9.34
17709,-5.42,3.73,1.26,2.61,-1.74,9.34
17713,-5.49,3.83,1.24,2.59,-1.75,9.34
17718,-5.57,4.01,1.20,2.56,-1.75,9.34
17722,-5.65,4.17,1.14,2.52,-1.76,9.35
17728,-5.71,4.29,1.08,2.49,-1.78,9.37
17733,-5.76,4.37,1.04,2.47,-1.79,9.38
17737,-5.83,4.46,0.96,2.45,-1.82,9.40
17744,-5.84,4.47,0.93,2.44,-1.84,9.40
17748,-5.83,4.49,0.91,2.43,-1.87,9.38
17752,-5.79,4.50,0.90,2.44,-1.89,9.35
17757,-5.65,4.51,0.89,2.49,-1.92,9.31
17763,-5.56,4.52,0.90,2.52,-1.93,9.29
17768,-5.24,4.63,0.90,2.62,-1.96,9.25
17773,-4.84,4.83,0.92,2.72,-1.97,9.23
17779,-4.53,5.02,0.93,2.78,-1.97,9.22
17783,-4.20,5.28,0.94,2.85,-1.94,9.22
17788,-3.87,5.59,0.96,2.90,-1.89,9.23
17793,-3.74,5.72,0.97,2.92,-1.87,9.23
17798,-3.22,6.24,1.02,2.93,-1.80,9.30
17803,-2.95,6.47,1.05,2.88,-1.79,9.33
17808,-2.56,6.88,1.07,2.72,-1.77,9.35
17813,-2.32,7.24,1.08,2.54,-1.76,9.36
17818,-2.28,7.37,1.08,2.49,-1.76,9.36
17823,-2.25,7.46,1.08,2.46,-1.76,9.36
17829,-2.17,7.69,1.06,2.34,-1.75,9.35
17833,-2.14,7.83,1.05,2.28,-1.75,9.34
17838,-2.11,8.20,1.02,2.18,-1.75,9.33
17843,-2.14,9.25,0.88,2.07,-1.72,9.30
17848,-2.36,9.98,0.79,2.07,-1.67,9.28
17853,-2.47,10.23,0.77,2.08,-1.65,9.28
17859,-2.65,10.39,0.74,2.10,-1.66,9.29
17863,-3.44,12.48,0.80,2.25,-2.00,9.44
17868,-3.48,12.72,0.82,2.26,-2.04,9.45
17873,-3.48,12.81,0.82,2.26,-2.05,9.46
17878,-3.49,12.90,0.83,2.26,-2.07,9.46
17882,-3.51,13.24,0.87,2.27,-2.10,9.47
17888,-3.53,13.95,1.02,2.27,-2.15,9.47
17893,-3.44,15.29,1.42,2.23,-2.21,9.45
17898,-3.39,15.81,1.61,2.20,-2.23,9.45
17902,-3.27,16.49,1.86,2.14,-2.24,9.45
17908,-3.19,16.90,2.01,2.10,-2.23,9.45
17913,-3.13,17.16,2.09,2.07,-2.22,9.45
17918,-2.97,17.80,2.29,2.00,-2.12,9.43
17923,-2.50,19.89,2.88,1.93,-1.88,9.36
17930,-2.26,21.03,3.29,1.94,-1.84,9.34
17933,-2.10,21.73,3.57,1.94,-1.84,9.33
17938,-1.89,22.49,3.91,1.94,-1.86,9.32
17944,-1.43,23.84,4.61,1.94,-1.89,9.30
17948,-0.96,25.38,5.35,1.92,-1.91,9.25
17953,-0.46,27.36,6.21,1.91,-1.92,9.17
17959,0.17,31.33,7.68,1.91,-1.90,8.95
17966,0.37,32.93,8.22,1.91,-1.89,8.86
17971,0.57,34.86,8.84,1.93,-1.88,8.76
17973,0.73,37.54,9.65,1.96,-1.87,8.63
17978,0.73,42.66,10.93,2.02,-1.86,8.51
17983,0.68,47.33,12.08,2.10,-1.85,8.55
17988,0.64,50.79,12.97,2.16,-1.85,8.62
17994,0.64,52.51,13.44,2.19,-1.84,8.68
17998,0.66,53.92,13.86,2.22,-1.85,8.74
18002,0.84,58.48,15.22,2.31,-1.88,9.00
18009,1.20,66.15,17.42,2.44,-2.02,9.37
18013,1.28,67.97,17.90,2.46,-2.06,9.44
18018,1.39,72.69,18.96,2.51,-2.16,9.54
18023,1.47,77.43,19.91,2.52,-2.25,9.58
18028,1.59,83.95,20.91,2.50,-2.31,9.56
18033,1.84,94.17,21.96,2.47,-2.34,9.52
18038,2.02,98.27,22.27,2.46,-2.33,9.50
18043,2.34,104.66,22.64,2.47,-2.29,9.47
18048,2.84,113.10,22.99,2.49,-2.24,9.44
18053,3.35,121.36,23.28,2.51,-2.17,9.40
18059,3.69,128.32,23.47,2.51,-2.10,9.36
18064,4.14,138.22,23.71,2.49,-1.98,9.32
18068,3.96,146.67,24.29,2.46,-1.89,9.32
18073,2.49,154.07,25.41,2.42,-1.82,9.34
18078,1.09,159.96,26.45,2.40,-1.75,9.35
18083,-6.36,176.10,32.76,2.39,-1.52,9.37
18088,-11.92,184.90,37.87,2.40,-1.36,9.41
18093,-18.36,193.98,43.82,2.44,-1.18,9.53
18098,-21.68,197.85,46.45,2.45,-1.22,9.73
18103,-24.64,202.07,49.43,2.47,-1.49,10.07
18108,-27.61,211.56,55.35,2.49,-2.35,11.04
18113,-27.50,216.71,58.60,2.48,-2.75,11.64
18118,-26.56,224.65,63.85,2.40,-3.18,12.52
18123,-24.86,234.51,70.46,2.25,-3.61,13.67
18130,-21.30,245.72,78.11,1.94,-3.90,15.13
18133,-17.28,253.91,82.90,1.62,-4.05,16.38
18138,-14.22,257.95,84.71,1.41,-4.11,17.07
18144,-2.85,263.65,85.22,0.96,-4.23,18.62
18147,2.10,261.81,82.85,0.94,-4.24,18.99
18153,11.17,254.51,77.11,0.97,-4.24,19.41
18158,20.53,234.19,68.67,1.33,-3.96,19.38
18163,33.46,189.22,58.51,2.21,-3.04,18.79
18168,47.28,129.00,56.61,3.89,-1.78,17.58
18173,53.19,100.00,61.99,5.35,-1.26,16.52
18179,54.22,93.64,64.86,5.87,-1.16,16.12
18183,54.91,87.29,68.74,6.48,-1.10,15.64
18188,54.83,78.64,75.10,7.35,-1.08,14.81
18193,54.31,73.19,79.52,7.88,-1.11,14.17
18198,52.24,60.99,89.99,8.94,-1.22,12.48
18203,50.84,54.99,93.90,9.25,-1.31,11.71
18209,47.55,42.95,100.15,9.63,-1.56,10.21
18213,44.28,31.34,103.74,9.72,-1.78,9.03
18217,42.58,25.42,104.77,9.71,-1.89,8.55
18223,39.76,14.87,105.14,9.59,-2.10,8.01
18228,37.64,6.40,104.38,9.39,-2.27,7.77
18232,35.58,-0.18,102.67,9.18,-2.49,7.75
18237,33.01,-7.10,99.51,8.93,-2.78,7.76
18244,30.87,-11.63,96.50,8.79,-2.99,7.80
18248,27.09,-19.38,89.81,8.56,-3.30,7.89
18252,23.54,-28.98,81.88,8.35,-3.51,7.98
18259,20.10,-39.97,73.18,8.14,-3.67,8.06
18264,16.32,-56.32,62.00,7.86,-3.81,8.14
18268,13.85,-68.17,54.65,7.65,-3.85,8.19
18273,12.24,-75.80,50.29,7.52,-3.87,8.21
18279,8.26,-94.89,40.46,7.15,-3.89,8.25
18283,4.98,-107.96,34.66,6.86,-3.87,8.29
18288,-0.16,-125.17,27.66,6.39,-3.79,8.38
18293,-4.00,-135.88,23.04,6.03,-3.70,8.49
18298,-5.90,-140.73,20.62,5.84,-3.65,8.54
18303,-8.83,-147.95,16.30,5.55,-3.57,8.63
18309,-12.18,-155.96,10.77,5.20,-3.46,8.73
18315,-14.92,-162.38,5.85,4.93,-3.34,8.79
18318,-18.18,-169.71,-0.57,4.60,-3.18,8.85
18323,-22.30,-178.21,-8.24,4.20,-2.92,8.98
18328,-25.20,-182.96,-12.62,3.96,-2.72,9.11
18333,-26.81,-185.19,-14.61,3.83,-2.61,9.21
18338,-30.43,-189.54,-18.26,3.58,-2.37,9.59
18344,-33.02,-191.81,-20.00,3.42,-2.22,9.90
18348,-37.46,-194.96,-22.18,3.19,-1.98,10.53
18353,-41.34,-198.06,-23.66,2.97,-1.75,11.20
18358,-43.47,-200.22,-24.34,2.83,-1.59,11.63
18363,-45.49,-204.38,-24.91,2.61,-1.34,12.18
18368,-47.23,-212.25,-25.29,2.23,-0.96,12.87
18373,-47.44,-214.14,-25.24,2.14,-0.88,13.00
18379,-47.60,-216.25,-25.09,2.05,-0.80,13.12
18383,-47.63,-219.89,-24.64,1.88,-0.68,13.32
18388,-47.53,-222.24,-24.34,1.75,-0.63,13.46
18393,-47.32,-224.99,-23.94,1.57,-0.57,13.63
18398,-46.05,-231.43,-22.36,1.07,-0.48,14.01
18403,-43.98,-234.96,-20.61,0.71,-0.50,14.25
18408,-39.99,-238.69,-17.51,0.36,-0.58,14.47
18414,-35.42,-241.92,-13.66,0.16,-0.69,14.57
18418,-33.07,-243.17,-11.78,0.09,-0.75,14.59
18423,-29.67,-244.71,-9.12,0.02,-0.84,14.61
18428,-23.70,-245.93,-4.96,-0.10,-1.07,14.62
18433,-18.86,-245.32,-2.55,-0.22,-1.42,14.60
18438,-15.55,-244.53,-1.52,-0.34,-1.79,14.59
18443,-12.11,-242.99,-1.49,-0.60,-2.47,14.55
18448,-10.80,-241.96,-1.83,-0.78,-2.94,14.51
18453,-10.22,-241.38,-2.16,-0.91,-3.23,14.49
18458,-9.39,-240.15,-3.50,-1.28,-3.92,14.41
18464,-9.43,-238.80,-5.03,-1.65,-4.48,14.34
18468,-10.17,-236.48,-7.29,-2.16,-5.15,14.25
18473,-13.71,-230.85,-12.96,-3.09,-6.07,14.12
18478,-18.62,-225.73,-18.40,-3.73,-6.47,14.05
18483,-21.90,-222.74,-21.90,-4.06,-6.59,14.01
18488,-30.34,-216.04,-30.27,-4.69,-6.64,13.92
18493,-37.86,-210.08,-37.80,-5.21,-6.45,13.83
18498,-45.64,-203.74,-45.62,-5.71,-6.14,13.73
18503,-54.20,-195.87,-53.99,-6.25,-5.58,13.62
18509,-61.20,-187.84,-60.34,-6.73,-4.88,13.50
18515,-63.51,-184.70,-62.26,-6.90,-4.58,13.44
18519,-68.41,-176.98,-65.96,-7.29,-3.79,13.26
18523,-70.86,-171.49,-67.39,-7.57,-3.26,13.10
18528,-74.61,-155.93,-68.98,-8.26,-1.82,12.52
18533,-75.15,-147.58,-68.82,-8.57,-1.24,12.23
18538,-74.68,-136.25,-67.82,-8.96,-0.70,11.92
18543,-73.99,-129.90,-67.06,-9.14,-0.52,11.80
18548,-70.91,-115.18,-64.80,-9.54,-0.28,11.61
18553,-65.94,-101.43,-62.29,-9.89,-0.27,11.55
18559,-61.43,-91.14,-60.24,-10.14,-0.29,11.51
18563,-57.77,-83.92,-58.72,-10.30,-0.31,11.50
18568,-45.76,-64.42,-54.10,-10.68,-0.51,11.49
18573,-33.86,-44.43,-48.74,-10.94,-0.77,11.30
18578,-30.02,-37.27,-46.57,-11.03,-0.91,11.01
18583,-27.29,-32.65,-45.04,-11.08,-1.00,10.60
18588,-25.01,-26.45,-43.70,-11.14,-1.11,10.23
18595,-18.85,0.33,-39.90,-11.37,-1.72,7.22
18600,-17.66,11.42,-40.45,-11.40,-1.91,6.20
18605,-16.04,26.22,-42.44,-11.40,-2.05,5.49
18608,-14.11,43.61,-46.47,-11.24,-2.13,5.04
18612,-11.18,67.78,-53.91,-10.74,-2.15,4.74
18618,-10.66,71.66,-55.35,-10.56,-2.12,4.72
18623,-8.01,91.91,-63.88,-9.11,-1.85,4.72
18630,-5.98,113.30,-75.18,-6.03,-0.88,5.14
18633,-5.09,122.38,-80.70,-4.13,-0.06,5.59
18638,-2.92,134.19,-87.95,-0.81,2.19,7.20
18643,-1.38,139.51,-90.41,0.63,3.61,8.32
18648,1.17,144.55,-91.44,1.58,4.92,9.40
18653,5.52,150.00,-89.77,2.44,6.41,10.71
18659,15.55,170.19,-67.98,3.33,9.43,13.53
18665,15.77,173.45,-62.26,3.32,9.67,13.68
18668,14.61,179.17,-50.51,3.24,9.88,13.85
18673,11.06,183.37,-34.64,3.11,9.63,13.93
18678,8.87,184.26,-26.88,3.06,9.29,13.92
18683,4.74,183.93,-13.16,2.98,8.25,13.93
18688,0.79,176.87,2.20,2.97,5.79,14.36
18693,-0.93,171.44,8.45,2.99,4.30,14.69
18698,-2.08,166.35,12.49,3.01,3.08,14.94
18703,-3.71,157.06,16.74,3.09,1.13,15.21
18708,-5.70,150.64,18.23,3.18,0.01,15.03
18713,-8.63,142.41,19.22,3.32,-1.09,14.43
18718,-16.17,118.31,18.04,3.49,-2.52,12.65
18723,-18.20,106.84,17.00,3.48,-2.82,12.10
18730,-20.50,82.44,14.54,3.37,-3.19,11.23
18734,-20.23,66.93,12.84,3.26,-3.24,10.83
18738,-18.82,52.58,11.19,3.14,-3.24,10.53
18744,-15.00,34.19,9.17,3.01,-3.09,10.25
18748,-12.49,26.75,8.41,2.98,-2.92,10.10
18753,-11.87,25.33,8.26,2.99,-2.85,10.07
