time_stamp,gyro_x,gyro_y,gyro_z,accel_x,accel_y,accel_z,quat_x,quat_y,quat_z,quat_w
3167,15.35,-148.06,-1.00,-3.26,-9.74,7.02
3174,7.10,-143.20,-8.64,-3.53,-9.50,7.12
3178,-0.75,-137.76,-15.85,-3.72,-9.19,7.28
3181,-3.03,-135.91,-17.91,-3.76,-9.06,7.38
3187,-7.01,-132.49,-21.46,-3.83,-8.80,7.60
3191,-9.00,-130.65,-23.16,-3.86,-8.65,7.74
3196,-11.30,-128.31,-24.91,-3.90,-8.41,7.95
3201,-13.62,-125.95,-26.58,-3.94,-8.16,8.17
3206,-15.58,-123.91,-27.97,-3.97,-7.93,8.36
3211,-21.15,-116.92,-31.80,-4.06,-7.01,9.05
3216,-22.47,-114.82,-32.83,-4.08,-6.69,9.24
3222,-23.13,-113.54,-33.46,-4.08,-6.50,9.34
3227,-23.64,-112.46,-33.98,-4.09,-6.34,9.42
3231,-24.36,-110.84,-34.76,-4.08,-6.10,9.54
3236,-25.32,-108.20,-36.03,-4.04,-5.69,9.70
3241,-26.38,-101.31,-39.29,-3.64,-4.44,9.93
3246,-26.32,-100.97,-39.44,-3.59,-4.36,9.93
3252,-26.25,-100.71,-39.53,-3.54,-4.29,9.93
3257,-26.07,-100.45,-39.57,-3.44,-4.20,9.92
3261,-25.67,-100.14,-39.48,-3.28,-4.06,9.88
3266,-25.48,-100.03,-39.40,-3.22,-4.02,9.87
3271,-25.24,-99.92,-39.26,-3.14,-3.96,9.85
3276,-24.25,-99.86,-38.20,-2.85,-3.84,9.80
3281,-24.05,-99.86,-37.93,-2.79,-3.82,9.79
3287,-23.73,-99.87,-37.49,-2.70,-3.79,9.78
3292,-23.05,-99.89,-36.48,-2.52,-3.74,9.75
3296,-22.84,-99.90,-36.13,-2.46,-3.73,9.74
3302,-22.51,-99.92,-35.56,-2.36,-3.71,9.73
3306,-21.61,-99.99,-33.78,-2.08,-3.66,9.73
3311,-21.38,-100.01,-33.26,-2.00,-3.65,9.73
3316,-20.75,-100.07,-31.90,-1.80,-3.62,9.73
3322,-20.60,-100.08,-31.60,-1.76,-3.61,9.73
3326,-20.49,-100.09,-31.35,-1.72,-3.61,9.73
3331,-20.31,-100.12,-30.94,-1.65,-3.60,9.74
3337,-16.97,-101.54,-25.83,-0.51,-3.39,9.96
3342,-16.82,-101.66,-25.94,-0.49,-3.38,9.97
3346,-16.33,-101.96,-26.30,-0.46,-3.34,10.00
3351,-16.21,-102.03,-26.42,-0.46,-3.33,10.01
3357,-16.06,-102.10,-26.57,-0.45,-3.31,10.01
3361,-15.06,-102.55,-27.84,-0.44,-3.21,10.05
3366,-11.37,-103.62,-32.02,-0.49,-2.75,10.16
3371,-7.02,-103.94,-34.27,-0.61,-2.29,10.35
3376,-4.38,-103.94,-34.62,-0.76,-2.11,10.57
3381,-2.99,-103.90,-34.54,-0.92,-2.07,10.76
3387,-1.71,-103.84,-34.39,-1.06,-2.07,10.88
3391,-0.81,-103.79,-34.25,-1.15,-2.07,10.95
3397,-0.14,-103.75,-34.13,-1.21,-2.08,11.00
3402,0.78,-103.67,-33.94,-1.29,-2.09,11.06
3407,1.19,-103.64,-33.85,-1.33,-2.10,11.09
3411,1.96,-103.57,-33.68,-1.40,-2.11,11.14
3416,2.65,-103.52,-33.54,-1.46,-2.12,11.19
3421,3.38,-103.46,-33.40,-1.53,-2.13,11.24
3426,3.73,-103.43,-33.34,-1.56,-2.14,11.26
3431,4.51,-103.34,-33.22,-1.63,-2.15,11.30
3437,6.33,-103.09,-32.94,-1.77,-2.17,11.37
3441,7.63,-102.89,-32.74,-1.87,-2.19,11.41
3446,8.63,-102.73,-32.59,-1.94,-2.20,11.44
3452,9.29,-102.63,-32.50,-1.99,-2.21,11.46
3457,45.23,-94.13,-27.86,-4.99,-2.55,12.32
3461,54.48,-90.52,-26.36,-6.07,-2.60,12.50
3466,56.08,-89.61,-25.92,-6.33,-2.61,12.53
3471,56.72,-89.23,-25.74,-6.44,-2.61,12.54
3476,58.04,-88.42,-25.34,-6.66,-2.61,12.56
3481,60.01,-87.15,-24.69,-7.02,-2.62,12.58
3486,62.49,-85.48,-23.60,-7.60,-2.62,12.62
3491,64.23,-84.44,-22.10,-8.14,-2.56,12.53
3497,62.91,-84.34,-21.10,-8.37,-2.43,12.29
3502,60.98,-83.91,-20.16,-8.65,-2.31,12.05
3507,59.00,-83.16,-19.19,-9.02,-2.20,11.83
3511,43.31,-78.55,-5.08,-13.28,-0.62,8.81
3516,35.40,-76.80,2.07,-14.98,0.06,7.39
3521,30.37,-73.94,6.76,-16.30,0.51,6.73
3526,28.70,-72.32,8.35,-16.72,0.67,6.53
3531,27.74,-71.13,9.25,-16.86,0.76,6.41
3537,27.36,-70.55,9.62,-16.87,0.78,6.36
3541,26.63,-69.29,10.30,-16.75,0.80,6.26
3546,23.83,-64.38,12.96,-15.21,0.53,5.89
3551,20.91,-60.59,15.72,-13.67,0.16,5.56
3556,16.40,-39.24,20.17,-8.96,-0.77,5.13
3561,12.94,-12.54,23.58,-3.66,-1.86,4.82
3566,12.47,-3.51,23.83,-1.86,-2.25,4.76
3571,12.44,-0.37,23.75,-1.22,-2.38,4.74
3576,14.19,19.93,20.96,2.44,-3.26,4.66
3581,15.12,25.11,19.76,3.17,-3.48,4.65
3587,22.66,50.29,10.33,5.68,-4.54,4.67
3591,32.04,72.91,-1.08,7.19,-5.46,4.78
3597,35.67,81.42,-5.11,7.57,-5.82,4.89
3601,38.11,86.27,-7.71,7.61,-6.05,5.09
3606,39.62,88.95,-9.26,7.51,-6.17,5.29
3611,45.83,99.57,-15.27,6.45,-6.29,6.41
3616,49.28,106.23,-18.55,5.73,-6.18,7.09
3621,70.59,151.40,-33.78,1.26,-4.44,15.26
3626,90.89,179.84,-38.90,-2.45,-1.22,23.74
3631,103.20,188.41,-34.06,-4.19,0.69,27.45
3636,109.95,192.14,-29.27,-5.05,1.64,29.16
3641,111.47,192.42,-27.49,-5.20,1.87,29.46
3646,114.33,191.13,-23.82,-5.45,2.29,29.86
3652,115.99,188.48,-21.41,-5.54,2.53,29.89
3657,117.81,183.13,-18.45,-5.51,2.77,29.57
3661,120.52,170.34,-13.56,-5.13,3.06,28.19
3666,121.75,160.00,-11.11,-4.80,3.17,27.05
3671,122.93,145.18,-8.53,-4.35,3.28,25.50
3676,123.36,138.55,-7.53,-4.15,3.31,24.81
3681,124.56,104.48,-3.53,-3.03,3.31,21.11
3687,110.57,43.55,-0.25,-0.73,2.17,13.99
3691,97.28,29.48,0.07,-0.15,1.56,12.29
3697,85.09,21.34,0.21,0.21,1.07,11.31
3701,78.52,18.84,0.21,0.32,0.84,11.04
3706,75.94,18.01,0.20,0.35,0.76,10.95
3711,62.88,14.08,0.15,0.52,0.36,10.54
3716,52.17,11.50,0.08,0.61,0.08,10.32
3721,48.88,10.88,0.06,0.62,0.00,10.28
3726,34.97,9.05,-0.08,0.61,-0.32,10.30
3731,32.14,8.72,-0.11,0.61,-0.38,10.32
3736,27.00,8.13,-0.17,0.60,-0.50,10.35
3741,18.18,7.11,-0.30,0.57,-0.68,10.39
3746,11.55,6.32,-0.43,0.53,-0.80,10.41
3752,5.93,5.61,-0.63,0.49,-0.90,10.41
3756,0.59,4.84,-0.94,0.45,-0.96,10.39
3761,-5.40,3.63,-2.16,0.45,-0.97,10.06
3766,-5.48,3.59,-2.24,0.46,-0.97,10.04
3771,-5.63,3.52,-2.40,0.47,-0.98,9.99
3776,-5.87,3.38,-2.91,0.50,-0.98,9.84
3781,-5.83,3.37,-3.00,0.51,-0.99,9.81
3786,-5.63,3.38,-3.19,0.53,-0.99,9.76
3791,-5.10,3.43,-3.47,0.57,-1.04,9.68
3796,-4.82,3.45,-3.56,0.58,-1.07,9.65
3801,-4.66,3.47,-3.59,0.59,-1.09,9.64
3807,-3.85,3.55,-3.68,0.61,-1.16,9.62
3811,-0.64,3.84,-3.42,0.63,-1.33,9.62
3816,1.70,3.96,-2.95,0.64,-1.37,9.65
3821,4.98,4.09,-2.09,0.63,-1.36,9.69
3826,6.31,4.13,-1.70,0.63,-1.33,9.71
3831,6.90,4.15,-1.51,0.63,-1.32,9.72
3837,7.87,4.18,-1.19,0.63,-1.28,9.73
3841,9.57,4.28,-0.60,0.62,-1.21,9.76
3846,9.98,4.32,-0.45,0.62,-1.18,9.76
3852,10.36,4.39,-0.31,0.62,-1.15,9.77
3857,10.78,4.49,-0.17,0.62,-1.10,9.78
3861,11.09,4.55,-0.05,0.61,-1.08,9.78
3866,11.31,4.58,0.02,0.61,-1.06,9.79
3871,12.77,5.15,0.58,0.59,-0.87,9.87
3877,13.30,5.64,0.80,0.57,-0.72,9.96
3881,13.32,5.77,0.82,0.56,-0.69,9.99
3887,13.30,5.96,0.84,0.55,-0.63,10.03
3891,13.24,6.08,0.85,0.54,-0.59,10.06
3897,13.20,6.13,0.85,0.54,-0.58,10.08
3902,13.05,6.27,0.85,0.53,-0.53,10.12
3906,12.99,6.34,0.84,0.52,-0.52,10.14
3911,12.93,6.40,0.84,0.52,-0.51,10.16
3917,11.91,6.44,0.73,0.48,-0.42,10.26
3921,11.50,6.39,0.68,0.47,-0.41,10.28
3926,11.22,6.35,0.65,0.47,-0.40,10.29
3931,11.14,6.34,0.64,0.47,-0.40,10.30
3937,11.01,6.33,0.62,0.46,-0.39,10.30
3941,10.92,6.31,0.61,0.46,-0.39,10.31
3946,6.00,4.78,0.05,0.40,-0.39,10.36
3951,3.69,3.82,-0.20,0.38,-0.45,10.34
3956,1.82,2.98,-0.40,0.38,-0.50,10.29
3961,0.37,2.23,-0.55,0.38,-0.55,10.23
3966,-0.51,1.73,-0.66,0.38,-0.57,10.19
3971,-1.12,1.34,-0.77,0.39,-0.56,10.16
3976,-1.51,1.09,-0.88,0.40,-0.55,10.13
3981,-1.64,1.00,-0.94,0.40,-0.55,10.12
3986,-1.79,0.90,-1.00,0.41,-0.54,10.11
3991,-2.13,0.69,-1.10,0.42,-0.52,10.09
3997,-3.11,0.15,-1.37,0.43,-0.49,10.03
4002,-3.85,-0.19,-1.54,0.44,-0.48,10.00
4007,-4.42,-0.41,-1.64,0.45,-0.48,9.98
4011,-7.43,-1.32,-2.26,0.50,-0.57,9.93
4016,-7.95,-1.43,-2.38,0.52,-0.60,9.93
4021,-8.27,-1.49,-2.46,0.53,-0.62,9.93
4026,-8.93,-1.55,-2.60,0.54,-0.67,9.93
4031,-9.27,-1.56,-2.66,0.54,-0.71,9.93
4037,-9.56,-1.55,-2.71,0.55,-0.75,9.94
4041,-9.70,-1.50,-2.71,0.56,-0.79,9.94
4046,-9.80,-1.43,-2.71,0.57,-0.83,9.95
4051,-9.82,-1.38,-2.70,0.58,-0.87,9.95
4056,-9.82,-1.26,-2.65,0.61,-0.92,9.97
4061,-9.63,-1.01,-2.52,0.64,-0.98,10.00
4066,-9.25,-0.77,-2.36,0.66,-1.00,10.04
4071,-9.12,-0.71,-2.31,0.66,-1.00,10.05
4076,-8.68,-0.57,-2.18,0.66,-1.01,10.08
4081,-8.35,-0.49,-2.09,0.65,-1.01,10.10
4087,-7.92,-0.41,-1.98,0.64,-1.01,10.12
4091,-7.09,-0.31,-1.76,0.61,-1.01,10.16
4096,-6.53,-0.23,-1.60,0.60,-1.01,10.17
4102,-6.19,-0.19,-1.50,0.58,-1.02,10.17
4107,-5.78,-0.14,-1.39,0.57,-1.03,10.16
4111,-5.32,-0.05,-1.28,0.55,-1.04,10.15
4116,-4.31,0.24,-1.03,0.50,-1.09,10.10
4122,-4.11,0.31,-0.97,0.50,-1.10,10.08
4126,-2.83,0.83,-0.61,0.49,-1.17,10.00
4131,-2.33,1.04,-0.46,0.51,-1.20,9.98
4137,-1.61,1.35,-0.26,0.53,-1.24,9.95
4141,0.59,2.32,0.22,0.58,-1.26,9.88
4146,0.79,2.42,0.25,0.58,-1.25,9.87
4152,2.41,3.18,0.57,0.58,-1.20,9.84
4156,2.64,3.28,0.62,0.58,-1.18,9.84
4161,3.14,3.52,0.73,0.57,-1.15,9.84
4166,5.51,4.72,1.30,0.44,-0.97,9.95
4171,5.74,4.85,1.35,0.42,-0.95,9.97
4176,6.02,5.03,1.42,0.39,-0.92,9.99
4181,6.79,5.61,1.65,0.30,-0.84,10.02
4187,7.00,5.83,1.76,0.26,-0.82,10.02
4191,7.06,5.91,1.80,0.25,-0.81,10.02
4196,7.11,6.00,1.87,0.23,-0.80,10.02
4202,7.04,6.01,1.92,0.22,-0.80,10.02
4206,7.00,6.01,1.94,0.22,-0.80,10.02
4211,6.85,5.96,1.96,0.22,-0.80,10.02
4216,6.37,5.71,1.95,0.22,-0.78,10.04
4221,5.68,5.26,1.89,0.22,-0.70,10.07
4226,5.15,4.90,1.81,0.21,-0.66,10.09
4231,4.90,4.73,1.76,0.20,-0.64,10.10
4236,4.21,4.25,1.62,0.18,-0.61,10.11
4241,4.05,4.13,1.58,0.17,-0.61,10.11
4246,3.89,4.01,1.54,0.16,-0.61,10.11
4252,3.12,3.41,1.34,0.14,-0.60,10.12
4256,3.03,3.34,1.32,0.14,-0.60,10.12
4261,2.69,3.08,1.23,0.13,-0.61,10.13
4267,1.56,2.27,0.95,0.11,-0.64,10.14
4271,1.06,1.90,0.81,0.11,-0.66,10.15
4276,0.35,1.38,0.60,0.11,-0.68,10.14
4281,-0.91,0.57,0.22,0.12,-0.71,10.14
4286,-1.12,0.45,0.18,0.12,-0.71,10.15
4291,-1.29,0.35,0.15,0.12,-0.71,10.15
4296,-1.53,0.22,0.11,0.13,-0.71,10.16
4301,-1.85,-0.02,0.06,0.13,-0.72,10.17
4306,-1.93,-0.08,0.05,0.14,-0.73,10.17
4311,-2.37,-0.52,-0.07,0.24,-0.77,10.19
4316,-2.38,-0.53,-0.07,0.25,-0.77,10.19
4321,-2.38,-0.54,-0.08,0.25,-0.77,10.19
4326,-2.39,-0.56,-0.09,0.27,-0.78,10.19
4331,-2.38,-0.58,-0.11,0.29,-0.79,10.18
4336,-2.38,-0.58,-0.12,0.29,-0.80,10.17
4341,-2.38,-0.58,-0.12,0.30,-0.80,10.16
4346,-2.27,-0.50,-0.12,0.32,-0.82,10.07
4352,-2.25,-0.47,-0.12,0.32,-0.82,10.07
4356,-2.13,-0.34,-0.08,0.33,-0.82,10.05
4361,-2.11,-0.32,-0.07,0.33,-0.82,10.05
4366,-2.06,-0.27,-0.05,0.33,-0.82,10.05
4371,-2.03,-0.24,-0.04,0.34,-0.81,10.05
4376,-1.91,-0.10,0.01,0.35,-0.81,10.06
4381,-1.90,-0.09,0.02,0.36,-0.81,10.06
4386,-1.88,-0.07,0.03,0.36,-0.81,10.06
4391,-1.87,-0.06,0.03,0.36,-0.81,10.06
4396,-1.73,0.10,0.10,0.39,-0.81,10.07
4401,-1.69,0.14,0.12,0.40,-0.81,10.07
4406,-1.43,0.44,0.20,0.45,-0.81,10.08
4411,-1.39,0.50,0.20,0.46,-0.81,10.08
4417,-1.34,0.55,0.20,0.46,-0.81,10.08
4421,-1.25,0.63,0.21,0.45,-0.81,10.07
4426,-0.85,0.77,0.23,0.44,-0.83,10.02
4431,-0.65,0.81,0.24,0.42,-0.85,10.00
4436,-0.54,0.82,0.25,0.41,-0.85,9.99
4441,-0.35,0.83,0.27,0.37,-0.86,9.98
4446,-0.21,0.83,0.29,0.34,-0.86,9.98
4452,-0.08,0.84,0.31,0.30,-0.85,9.99
4456,-0.04,0.84,0.31,0.29,-0.85,9.99
4461,-0.01,0.85,0.31,0.29,-0.85,9.99
4466,0.02,0.87,0.31,0.28,-0.84,9.99
4471,0.02,0.88,0.31,0.28,-0.84,10.00
4476,0.02,0.88,0.31,0.28,-0.84,10.00
4481,0.03,0.90,0.32,0.28,-0.84,10.00
4486,0.04,0.91,0.32,0.28,-0.84,10.00
4491,0.09,0.94,0.32,0.27,-0.84,10.00
4496,0.18,0.99,0.32,0.26,-0.84,10.00
4502,0.45,1.25,0.32,0.25,-0.82,10.01
4506,0.64,1.46,0.32,0.24,-0.80,10.01
4511,0.69,1.53,0.32,0.23,-0.79,10.01
4516,0.78,1.66,0.31,0.23,-0.77,10.01
4521,0.84,1.76,0.31,0.23,-0.75,10.01
4526,0.88,1.85,0.31,0.23,-0.73,10.01
4531,0.90,1.92,0.31,0.23,-0.73,10.00
4536,0.91,1.98,0.30,0.21,-0.72,9.99
4541,0.84,2.08,0.28,0.17,-0.70,9.96
4546,0.76,2.18,0.26,0.15,-0.68,9.94
4551,0.47,2.57,0.23,0.19,-0.64,9.89
4556,0.43,2.62,0.22,0.20,-0.64,9.89
4561,0.31,2.74,0.22,0.24,-0.65,9.88
4566,-0.01,2.90,0.19,0.28,-0.69,9.88
4571,-0.42,2.98,0.16,0.30,-0.75,9.88
4576,-0.67,2.99,0.12,0.28,-0.78,9.89
4581,-0.72,2.99,0.11,0.28,-0.79,9.89
4586,-1.28,3.00,-0.06,0.21,-0.85,9.94
4591,-1.37,3.02,-0.11,0.20,-0.85,9.96
4596,-1.45,3.05,-0.18,0.19,-0.86,9.98
4602,-1.50,3.23,-0.42,0.20,-0.91,10.09
4606,-1.46,3.42,-0.56,0.21,-0.97,10.16
4611,-1.41,3.56,-0.62,0.22,-1.02,10.19
4616,-1.32,3.71,-0.65,0.24,-1.08,10.19
4621,-1.02,3.96,-0.66,0.26,-1.15,10.13
4626,-0.65,4.11,-0.63,0.27,-1.13,10.03
4631,-0.53,4.17,-0.61,0.27,-1.12,10.00
4637,-0.47,4.20,-0.60,0.27,-1.11,9.99
4641,-0.41,4.23,-0.59,0.27,-1.10,9.97
4646,0.35,4.95,-0.41,0.28,-0.87,9.83
4651,0.46,5.12,-0.35,0.29,-0.82,9.81
4657,0.54,5.24,-0.31,0.30,-0.79,9.81
4661,0.66,5.44,-0.22,0.31,-0.75,9.84
4666,0.80,5.68,-0.07,0.33,-0.70,9.89
4671,0.89,5.81,-0.02,0.34,-0.69,9.93
4676,0.92,5.85,-0.00,0.34,-0.69,9.95
4681,0.95,5.86,0.02,0.34,-0.68,9.97
4686,0.96,5.87,0.04,0.34,-0.68,9.99
4691,0.97,5.90,0.06,0.34,-0.68,10.01
4696,0.95,5.95,0.08,0.34,-0.67,10.04
4702,0.92,6.09,0.10,0.35,-0.67,10.08
4707,0.86,6.24,0.10,0.35,-0.67,10.14
4711,0.65,6.51,0.11,0.35,-0.67,10.20
4717,0.11,6.78,-0.02,0.33,-0.67,10.21
4721,-1.18,7.17,-0.42,0.29,-0.67,10.19
4726,-1.41,7.22,-0.49,0.28,-0.67,10.19
4731,-1.65,7.28,-0.58,0.27,-0.67,10.18
4736,-2.57,7.42,-0.90,0.26,-0.67,10.17
4741,-3.05,7.49,-1.08,0.26,-0.67,10.16
4746,-3.66,7.56,-1.33,0.26,-0.67,10.16
4752,-3.75,7.57,-1.37,0.26,-0.67,10.16
4757,-4.57,7.60,-1.69,0.28,-0.67,10.15
4761,-6.53,7.60,-2.38,0.33,-0.68,10.14
4766,-12.06,7.76,-4.53,0.39,-0.72,10.11
4771,-12.73,7.92,-4.96,0.40,-0.75,10.09
4776,-15.19,9.66,-8.00,0.44,-0.93,9.96
4781,-15.91,10.88,-9.91,0.49,-0.97,9.94
4787,-16.03,11.12,-10.24,0.50,-0.98,9.94
4791,-16.29,11.91,-11.28,0.55,-1.01,9.94
4796,-17.01,13.59,-13.07,0.65,-1.09,9.96
4801,-17.39,14.37,-13.71,0.70,-1.14,9.97
4806,-18.02,15.58,-14.44,0.76,-1.18,9.98
4811,-18.79,16.83,-14.98,0.81,-1.20,9.98
4817,-19.49,17.82,-15.38,0.84,-1.21,9.96
4821,-19.99,18.53,-15.62,0.87,-1.21,9.95
4826,-21.07,20.42,-16.07,0.93,-1.18,9.92
4831,-21.72,21.99,-16.30,0.97,-1.17,9.89
4836,-22.92,25.70,-16.61,1.03,-1.13,9.81
4841,-25.72,39.74,-16.66,1.18,-1.05,9.55
4846,-26.81,45.71,-16.34,1.24,-1.03,9.45
4852,-29.30,59.71,-14.27,1.40,-1.02,9.20
4856,-29.75,62.39,-13.74,1.44,-1.02,9.14
4861,-32.97,94.38,-9.54,1.70,-0.96,8.51
4866,-33.60,99.61,-9.17,1.72,-0.92,8.46
4871,-35.20,110.96,-8.45,1.74,-0.80,8.41
4876,-35.71,113.79,-8.30,1.74,-0.76,8.43
4881,-36.47,117.25,-8.13,1.73,-0.69,8.48
4886,-41.57,134.53,-7.09,1.58,-0.18,9.02
4891,-46.39,149.12,-5.69,1.21,0.46,9.82
4897,-51.32,158.73,-4.53,0.76,0.97,10.47
4901,-53.72,162.47,-4.03,0.52,1.19,10.75
4906,-81.84,179.12,-0.22,-0.88,1.55,11.76
4911,-90.21,182.06,0.97,-1.09,1.42,11.83
4917,-100.03,185.13,2.47,-1.30,1.18,11.89
4922,-116.01,190.76,5.19,-1.55,0.69,11.92
4926,-128.04,195.67,7.48,-1.70,0.25,11.93
4931,-139.83,201.28,10.17,-1.84,-0.19,11.93
4937,-157.38,212.39,16.71,-2.08,-0.87,11.91
4941,-159.68,213.89,18.45,-2.16,-0.96,11.90
4946,-164.40,216.22,22.87,-2.37,-1.17,11.84
4952,-173.60,217.89,36.34,-2.97,-1.73,11.63
4957,-180.02,215.85,52.18,-3.53,-2.50,11.41
4961,-180.71,214.29,56.29,-3.64,-2.75,11.36
4967,-181.37,206.98,67.81,-3.89,-3.71,11.28
4972,-181.04,203.91,70.47,-3.94,-4.03,11.26
4977,-176.28,194.70,74.91,-3.81,-4.84,11.28
4981,-173.26,190.12,75.82,-3.66,-5.23,11.34
4986,-155.86,173.98,75.46,-2.17,-6.20,12.23
4991,-129.58,155.56,68.70,0.36,-6.83,13.95
4996,-101.09,136.15,57.04,2.64,-7.11,15.57
5002,-79.60,121.56,45.75,4.10,-6.91,16.61
5006,-44.39,94.37,25.76,5.93,-5.91,17.43
5011,14.32,36.20,-9.73,7.90,-2.60,17.17
5016,43.04,-6.00,-24.43,8.27,0.10,15.53
5021,45.92,-11.49,-25.38,8.25,0.42,15.28
5026,60.02,-42.85,-28.08,8.01,2.11,13.70
5031,69.36,-69.68,-18.93,7.38,2.76,12.56
5037,70.75,-73.44,-16.57,7.25,2.76,12.45
5041,73.10,-79.31,-12.95,7.04,2.74,12.34
5046,76.26,-86.11,-7.48,6.73,2.48,12.26
5051,100.40,-140.03,24.34,2.85,-3.22,10.91
5056,101.57,-144.18,26.39,2.50,-3.73,10.84
5061,103.43,-156.86,30.19,0.55,-6.25,9.33
5067,100.60,-159.82,31.16,-0.53,-7.64,8.62
5071,98.84,-159.52,31.04,-1.02,-8.31,8.36
5076,48.22,-138.31,8.97,-5.25,-13.83,6.20
5081,23.82,-114.61,-4.07,-6.25,-13.89,5.73
5086,20.23,-110.45,-5.52,-6.37,-13.82,5.73
5091,18.92,-108.81,-5.94,-6.41,-13.79,5.73
5096,17.91,-107.47,-6.26,-6.43,-13.77,5.74
5102,17.11,-106.35,-6.54,-6.46,-13.75,5.74
5106,5.25,-87.55,-10.81,-6.77,-12.86,6.19
5111,-2.55,-73.50,-11.55,-6.94,-11.61,6.80
5116,-18.11,-49.51,-9.58,-6.98,-7.38,8.56
5121,-31.13,-44.43,-7.45,-6.41,-3.79,9.98
5126,-34.00,-44.26,-6.90,-6.16,-3.02,10.29
5131,-35.39,-44.26,-6.36,-5.94,-2.68,10.43
5136,-41.15,-52.54,23.62,-1.97,-2.94,10.34
5141,-41.59,-57.59,39.96,-0.45,-4.22,9.69
5146,-42.39,-59.84,43.80,0.40,-4.71,9.40
5152,-43.54,-61.55,45.61,1.17,-5.03,9.18
5156,-44.32,-62.25,46.54,1.52,-5.12,9.09
5161,-44.53,-62.43,46.83,1.61,-5.16,9.06
5167,-44.68,-62.55,47.06,1.67,-5.18,9.04
5171,-44.81,-62.64,47.25,1.72,-5.21,9.01
5176,-44.91,-62.70,47.41,1.75,-5.24,8.99
5181,-46.43,-63.96,41.07,2.27,-5.21,9.05
5186,-49.66,-66.13,22.39,3.18,-4.72,9.41
5191,-49.91,-66.50,18.61,3.33,-4.51,9.52
5196,-49.20,-69.42,5.15,3.92,-3.25,10.02
5202,-42.79,-84.17,-12.52,4.31,-0.82,10.88
5207,-38.78,-91.73,-19.13,4.16,0.18,11.33
5211,-38.15,-92.35,-19.66,4.13,0.29,11.39
5217,-37.20,-93.08,-20.30,4.09,0.43,11.46
5221,-36.85,-93.31,-20.51,4.07,0.48,11.49
5226,-36.54,-93.50,-20.67,4.06,0.52,11.51
5232,-36.22,-93.68,-20.83,4.04,0.56,11.53
5236,-35.87,-93.86,-20.99,4.02,0.60,11.55
5241,-35.48,-94.05,-21.14,4.00,0.64,11.57
5246,-34.09,-94.61,-21.55,3.93,0.75,11.64
5252,-33.55,-94.80,-21.66,3.90,0.78,11.66
5256,-32.34,-95.17,-21.84,3.84,0.83,11.69
5261,-31.34,-95.36,-21.92,3.80,0.85,11.71
5266,-29.94,-95.55,-22.00,3.74,0.88,11.73
5271,-27.90,-95.80,-22.09,3.65,0.90,11.76
5276,-25.54,-96.10,-22.19,3.55,0.92,11.78
5282,-24.26,-96.33,-22.27,3.49,0.92,11.78
5286,-19.31,-98.19,-22.82,3.26,0.85,11.78
5291,-16.95,-99.61,-23.16,3.15,0.78,11.78
5296,-14.95,-100.99,-23.47,3.05,0.72,11.78
5301,-13.58,-101.99,-23.69,2.98,0.67,11.78
5306,-12.72,-102.60,-23.83,2.94,0.64,11.77
5311,-11.56,-103.42,-24.02,2.88,0.60,11.77
5317,-8.75,-105.56,-24.54,2.73,0.51,11.77
5322,-7.47,-106.93,-24.87,2.66,0.45,11.76
5326,-3.94,-113.29,-26.42,2.42,0.16,11.73
5331,12.32,-142.13,-34.00,1.28,-1.41,11.38
5336,19.13,-149.72,-36.88,0.75,-2.32,11.06
5341,24.83,-151.92,-38.68,0.38,-2.97,10.83
5346,41.73,-147.60,-51.37,-0.43,-4.16,10.22
5352,42.73,-146.68,-52.70,-0.47,-4.20,10.17
5356,48.86,-138.60,-62.23,-0.77,-4.36,9.89
5361,53.98,-129.14,-70.50,-1.09,-4.36,9.69
5367,61.28,-116.23,-78.99,-1.67,-4.14,9.61
5371,62.21,-114.84,-79.66,-1.76,-4.10,9.64
5377,66.36,-107.93,-81.62,-2.26,-3.91,9.99
5381,66.68,-107.38,-81.66,-2.30,-3.89,10.05
5386,68.02,-104.82,-81.39,-2.51,-3.82,10.37
5391,69.88,-99.01,-79.12,-2.93,-3.69,11.09
5396,70.96,-89.26,-71.67,-3.74,-3.47,12.21
5401,70.92,-88.12,-70.32,-3.86,-3.44,12.33
5406,70.79,-86.43,-67.89,-4.08,-3.37,12.48
5411,69.81,-82.73,-60.98,-4.73,-3.14,12.79
5417,66.67,-79.35,-49.23,-5.70,-2.72,12.91
5422,62.69,-78.19,-39.87,-6.39,-2.35,12.85
5426,59.31,-77.91,-33.64,-6.82,-2.07,12.71
5431,58.07,-77.86,-31.65,-6.95,-1.97,12.64
5436,51.42,-77.73,-21.98,-7.65,-1.42,12.23
5442,42.33,-78.02,-11.24,-8.62,-0.48,11.55
5446,30.60,-76.02,-2.17,-9.78,0.56,10.66
5452,26.89,-73.81,0.24,-10.12,0.80,10.35
5457,6.45,-57.10,17.25,-11.50,1.33,8.21
5461,3.86,-54.93,21.33,-11.64,1.39,7.77
5466,-5.03,-48.61,36.79,-12.09,1.21,6.30
5471,-7.78,-46.37,42.77,-12.19,0.98,5.75
5476,-18.50,-34.14,87.67,-12.34,-1.05,1.88
5481,-21.00,-28.65,105.46,-12.32,-2.19,0.49
5486,-20.98,-23.31,118.23,-12.11,-3.26,-0.49
5491,-19.85,-19.39,125.53,-11.86,-3.99,-1.03
5497,-13.75,-4.76,138.21,-10.83,-6.16,-1.96
5502,14.19,36.75,138.86,-7.92,-10.12,-2.09
5506,32.02,54.74,128.77,-6.68,-11.22,-1.50
5511,64.26,81.87,106.65,-4.88,-12.28,-0.19
5516,75.71,90.21,98.22,-4.34,-12.51,0.31
5521,107.30,111.93,71.75,-2.97,-12.73,1.78
5526,117.69,118.44,60.95,-2.58,-12.68,2.30
5531,123.36,121.99,51.76,-2.40,-12.61,2.63
5536,128.75,124.04,41.93,-2.27,-12.42,2.92
5541,133.16,124.09,34.79,-2.16,-11.98,3.03
5546,134.46,124.09,28.50,-2.12,-11.34,2.92
5552,130.54,128.71,10.18,-2.22,-9.87,2.43
5556,127.07,132.66,-11.87,-2.32,-7.69,1.84
5561,117.51,144.07,-52.47,-2.49,-3.44,0.50
5567,104.47,160.56,-80.46,-2.65,-0.39,-0.43
5571,100.02,166.16,-87.88,-2.70,0.48,-0.69
5576,95.24,172.03,-95.12,-2.75,1.33,-0.92
5581,80.45,192.00,-113.59,-2.95,3.16,0.98
5586,74.95,211.60,-113.68,-3.67,5.29,16.19
5591,82.91,209.72,-107.00,-3.86,5.66,21.03
5596,92.28,201.29,-97.91,-3.93,6.10,23.73
5602,97.55,194.40,-91.67,-3.94,6.42,24.96
5606,115.93,147.30,-58.56,-3.71,7.24,26.40
5611,116.61,136.51,-52.70,-3.57,7.06,25.86
5616,116.64,133.21,-50.96,-3.53,6.99,25.67
5621,116.21,121.37,-44.71,-3.35,6.68,24.91
5626,108.67,83.42,-25.23,-2.66,5.22,21.88
5631,105.91,75.19,-21.26,-2.49,4.82,21.18
5636,65.65,25.02,1.36,-1.02,1.57,15.90
5641,54.65,18.48,2.58,-0.77,1.06,15.07
5646,-11.54,-0.60,0.77,0.26,-0.22,12.22
5651,-14.83,-1.22,-0.02,0.29,-0.22,12.13
5656,-16.58,-1.65,-0.56,0.30,-0.21,12.08
5661,-20.98,-2.80,-1.95,0.33,-0.17,11.96
5667,-22.02,-3.35,-2.44,0.34,-0.16,11.88
5671,-22.45,-5.38,-3.59,0.36,-0.34,11.42
5676,-21.43,-8.15,-4.21,0.48,-0.92,10.44
5681,-21.31,-8.32,-4.25,0.50,-1.00,10.32
5686,-20.91,-8.63,-4.36,0.58,-1.25,9.90
5691,-20.65,-8.49,-4.48,0.61,-1.37,9.69
5696,-20.58,-8.30,-4.52,0.62,-1.40,9.64
5702,-20.02,-6.72,-4.79,0.66,-1.54,9.43
5706,-19.01,-4.78,-5.00,0.67,-1.64,9.36
5711,-18.64,-4.25,-5.00,0.67,-1.66,9.37
5717,-16.23,-2.91,-4.55,0.68,-1.77,9.39
5721,-15.75,-2.75,-4.44,0.69,-1.79,9.39
5726,-15.42,-2.66,-4.37,0.69,-1.80,9.39
5731,-14.20,-2.41,-4.11,0.70,-1.82,9.38
5736,-9.94,-1.59,-3.26,0.72,-1.87,9.34
5741,-8.80,-1.35,-3.05,0.73,-1.87,9.33
5746,3.77,1.84,-1.05,0.75,-1.78,9.28
5752,5.12,2.26,-0.89,0.76,-1.74,9.27
5756,10.68,3.98,-0.27,0.75,-1.61,9.33
5761,17.83,6.32,0.08,0.70,-1.16,9.54
5766,19.72,6.93,0.09,0.68,-0.95,9.66
5771,21.76,7.60,-0.01,0.64,-0.51,9.95
5776,21.89,7.64,-0.06,0.63,-0.40,10.05
5781,21.78,7.61,-0.13,0.62,-0.29,10.17
5786,19.74,7.01,-0.35,0.60,-0.11,10.41
5791,18.43,6.64,-0.47,0.60,-0.09,10.45
5796,17.51,6.39,-0.55,0.60,-0.08,10.47
5801,16.27,6.06,-0.64,0.60,-0.11,10.47
5806,15.25,5.78,-0.72,0.60,-0.13,10.45
5811,13.65,5.34,-0.84,0.60,-0.18,10.42
5817,8.68,4.01,-1.20,0.60,-0.33,10.33
5821,7.90,3.80,-1.25,0.60,-0.36,10.31
5826,4.68,2.95,-1.48,0.60,-0.51,10.24
5831,1.42,2.10,-1.72,0.59,-0.69,10.17
5836,-0.07,1.75,-1.85,0.60,-0.79,10.13
5841,-2.51,1.31,-2.13,0.62,-1.13,9.99
5846,-2.56,1.33,-2.16,0.62,-1.20,9.95
5852,-2.54,1.37,-2.16,0.63,-1.25,9.93
5857,-2.43,1.44,-2.15,0.63,-1.30,9.90
5861,-2.14,1.58,-2.11,0.64,-1.37,9.87
5866,-1.97,1.66,-2.09,0.65,-1.41,9.85
5871,-0.57,2.31,-1.83,0.68,-1.56,9.78
5876,-0.18,2.47,-1.75,0.69,-1.58,9.77
5881,1.55,3.16,-1.41,0.70,-1.61,9.75
5886,5.44,4.68,-0.58,0.73,-1.62,9.74
5891,6.27,4.99,-0.39,0.72,-1.58,9.75
5896,6.77,5.19,-0.27,0.72,-1.55,9.77
5901,6.97,5.27,-0.22,0.71,-1.54,9.77
5907,7.10,5.33,-0.19,0.71,-1.53,9.78
5911,8.68,5.98,0.20,0.69,-1.43,9.82
5917,11.68,7.30,1.08,0.60,-1.14,9.95
5922,13.26,8.06,1.63,0.53,-0.92,10.04
5926,14.16,8.55,2.00,0.46,-0.74,10.12
5931,14.58,8.81,2.26,0.38,-0.55,10.19
5937,14.37,8.80,2.41,0.29,-0.32,10.26
5941,14.09,8.71,2.39,0.27,-0.28,10.26
5946,13.50,8.47,2.32,0.26,-0.24,10.27
5951,12.96,8.24,2.22,0.25,-0.21,10.27
5956,12.57,8.07,2.15,0.25,-0.20,10.27
5961,11.24,7.47,1.89,0.25,-0.18,10.26
5967,10.34,7.07,1.71,0.25,-0.18,10.26
5972,9.11,6.53,1.47,0.25,-0.17,10.25
5976,4.99,4.74,0.66,0.26,-0.19,10.23
5981,3.97,4.30,0.45,0.26,-0.19,10.23
5986,-4.14,0.86,-1.21,0.34,-0.35,10.18
5991,-5.44,0.34,-1.51,0.37,-0.42,10.16
5996,-6.15,0.05,-1.65,0.39,-0.45,10.15
6002,-6.62,-0.13,-1.74,0.40,-0.48,10.14
6006,-9.30,-1.20,-2.53,0.52,-0.92,10.05
6011,-9.25,-1.20,-2.55,0.52,-0.96,10.04
6016,-9.21,-1.20,-2.56,0.52,-0.98,10.04
6022,-8.90,-1.12,-2.54,0.52,-1.06,10.03
6026,-8.85,-1.11,-2.54,0.52,-1.07,10.03
6031,-8.51,-1.03,-2.50,0.52,-1.10,10.02
6036,-7.65,-0.90,-2.34,0.51,-1.13,10.01
6041,-7.02,-0.80,-2.21,0.51,-1.12,10.02
6046,-5.32,-0.42,-1.83,0.50,-1.10,10.04
6051,7.56,4.88,0.84,0.48,-0.79,9.96
6057,7.68,5.00,0.86,0.48,-0.78,9.96
6061,7.69,5.02,0.86,0.48,-0.78,9.96
6067,7.71,5.04,0.87,0.48,-0.78,9.96
6072,7.73,5.05,0.87,0.48,-0.78,9.96
6076,7.73,5.06,0.88,0.48,-0.78,9.97
6081,7.74,5.07,0.88,0.48,-0.78,9.97
6086,7.75,5.08,0.88,0.48,-0.78,9.97
6091,7.76,5.10,0.89,0.48,-0.78,9.97
6096,7.77,5.11,0.89,0.48,-0.78,9.97
6102,7.78,5.12,0.90,0.48,-0.78,9.97
6106,7.78,5.13,0.90,0.48,-0.78,9.97
6111,7.79,5.14,0.91,0.48,-0.78,9.97
6116,7.80,5.16,0.92,0.47,-0.78,9.97
6121,7.81,5.17,0.93,0.47,-0.78,9.97
6127,7.82,5.18,0.93,0.47,-0.78,9.98
6131,7.82,5.19,0.94,0.47,-0.78,9.98
6137,7.83,5.20,0.95,0.47,-0.78,9.98
6141,7.82,5.22,0.98,0.47,-0.78,9.98
6146,7.81,5.23,1.01,0.47,-0.78,9.99
6151,7.80,5.24,1.04,0.47,-0.78,10.00
6156,7.78,5.24,1.07,0.47,-0.78,10.00
6161,7.72,5.24,1.10,0.46,-0.77,10.01
6166,7.64,5.23,1.14,0.46,-0.77,10.02
6171,7.36,5.19,1.23,0.43,-0.74,10.04
6176,7.23,5.18,1.25,0.41,-0.72,10.05
6181,7.10,5.16,1.27,0.40,-0.70,10.05
6186,6.98,5.14,1.28,0.38,-0.69,10.06
6191,6.79,5.12,1.30,0.36,-0.66,10.07
6196,6.36,5.07,1.33,0.31,-0.60,10.09
6202,6.15,5.02,1.33,0.29,-0.58,10.11
6206,6.09,5.01,1.33,0.28,-0.57,10.11
6211,6.04,4.99,1.33,0.28,-0.57,10.12
6217,5.96,4.97,1.32,0.27,-0.56,10.13
6222,5.87,4.95,1.31,0.26,-0.56,10.14
6226,5.62,4.87,1.29,0.24,-0.55,10.16
6231,5.21,4.67,1.24,0.22,-0.55,10.18
6237,4.96,4.53,1.20,0.21,-0.55,10.19
6241,4.52,4.23,1.13,0.20,-0.55,10.19
6247,4.16,3.98,1.07,0.19,-0.55,10.18
6251,3.84,3.77,1.01,0.19,-0.55,10.18
6256,3.74,3.69,0.99,0.19,-0.55,10.17
6261,3.66,3.63,0.97,0.19,-0.55,10.17
6267,3.52,3.53,0.95,0.19,-0.55,10.17
6272,3.44,3.47,0.93,0.18,-0.56,10.16
6276,3.34,3.39,0.91,0.18,-0.56,10.16
6281,3.17,3.27,0.87,0.18,-0.56,10.16
6287,2.84,3.05,0.81,0.18,-0.56,10.15
6291,2.41,2.78,0.73,0.18,-0.57,10.14
6296,1.89,2.46,0.63,0.18,-0.57,10.13
6301,1.47,2.21,0.54,0.18,-0.58,10.13
6306,0.88,1.87,0.42,0.18,-0.60,10.13
6311,0.04,1.38,0.21,0.17,-0.61,10.15
6318,-0.47,1.07,0.07,0.17,-0.63,10.16
6321,-0.67,0.96,0.01,0.16,-0.63,10.17
6326,-1.16,0.68,-0.15,0.17,-0.64,10.18
6331,-1.89,0.21,-0.41,0.20,-0.66,10.19
6337,-2.02,0.11,-0.45,0.20,-0.66,10.19
6341,-2.60,-0.34,-0.56,0.24,-0.68,10.18
6346,-2.71,-0.43,-0.58,0.25,-0.69,10.17
6351,-2.78,-0.49,-0.59,0.26,-0.69,10.17
6356,-2.85,-0.56,-0.59,0.27,-0.70,10.16
6361,-2.93,-0.62,-0.61,0.29,-0.70,10.15
6366,-3.05,-0.70,-0.63,0.32,-0.72,10.10
6371,-3.07,-0.72,-0.63,0.33,-0.73,10.07
6376,-3.08,-0.73,-0.63,0.34,-0.73,10.06
6381,-3.00,-0.48,-0.62,0.35,-0.75,9.98
6386,-2.94,-0.34,-0.60,0.35,-0.75,9.97
6391,-1.94,1.13,-0.39,0.24,-0.81,10.04
6396,-1.90,1.24,-0.34,0.24,-0.82,10.02
6401,-1.85,1.32,-0.30,0.24,-0.84,10.00
6407,-1.84,1.33,-0.29,0.24,-0.85,10.00
6411,-1.82,1.34,-0.28,0.24,-0.86,10.00
6417,-1.81,1.36,-0.27,0.24,-0.86,9.99
6422,-1.80,1.37,-0.27,0.24,-0.87,9.99
6426,-1.11,1.67,-0.24,0.27,-0.91,9.95
6431,-0.43,1.95,-0.24,0.30,-0.89,9.94
6436,0.15,2.22,-0.25,0.33,-0.85,9.93
6441,0.31,2.29,-0.26,0.33,-0.84,9.93
6446,1.48,3.09,-0.31,0.33,-0.76,9.91
6451,1.53,3.16,-0.32,0.32,-0.76,9.91
6457,1.32,3.77,-0.28,0.29,-0.63,10.04
6461,1.21,3.84,-0.26,0.28,-0.59,10.10
6466,1.10,3.85,-0.25,0.27,-0.58,10.13
6471,0.96,3.84,-0.25,0.27,-0.57,10.17
6476,-1.26,3.42,-0.45,0.17,-0.56,10.33
6481,-2.19,3.18,-0.66,0.12,-0.56,10.28
6486,-5.41,1.45,-1.94,0.07,-0.57,9.70
6491,-6.95,1.03,-2.32,0.23,-0.59,9.89
6496,-10.66,0.49,-3.57,0.35,-0.74,10.08
6501,-18.80,-2.52,-9.23,0.18,-1.10,10.19
6506,-19.21,-2.82,-9.53,0.19,-1.09,10.19
6511,-25.03,-5.77,-14.72,0.45,-0.98,10.08
6517,-26.23,-5.82,-15.96,0.55,-0.99,10.02
6522,-28.78,-5.45,-18.01,0.79,-1.06,9.71
6526,-30.60,-4.77,-19.07,0.96,-1.15,9.39
6531,-33.71,-0.95,-20.11,1.24,-1.50,8.63
6536,-28.29,25.80,-17.53,1.40,-2.12,8.36
6541,-16.41,48.57,-13.17,1.40,-2.15,8.72
6546,-5.28,64.01,-8.42,1.39,-1.94,9.15
6552,-4.15,65.43,-7.85,1.39,-1.89,9.19
6556,-2.75,67.35,-7.07,1.39,-1.82,9.24
6561,-0.76,70.62,-5.81,1.38,-1.68,9.31
6567,4.16,98.70,8.33,1.29,-0.01,9.53
6571,-4.42,121.24,15.68,0.88,0.60,9.65
6576,-41.61,149.80,17.88,-0.38,0.25,9.95
6581,-65.71,166.49,19.02,-1.12,-0.31,10.27
6586,-70.63,169.05,19.17,-1.28,-0.49,10.34
6591,-76.68,172.59,19.37,-1.45,-0.68,10.42
6596,-107.81,194.01,22.22,-2.29,-1.66,10.99
6602,-122.19,204.35,25.23,-2.64,-2.23,11.38
6606,-134.17,213.20,30.62,-2.89,-2.71,11.79
6611,-144.14,220.87,36.65,-3.12,-3.10,12.14
6616,-147.24,223.20,38.85,-3.17,-3.21,12.23
6621,-144.04,216.70,43.48,-2.47,-3.23,12.05
6627,-132.86,201.82,42.25,-1.31,-3.02,11.57
6631,-119.48,185.76,39.33,-0.23,-2.73,11.10
6637,-108.98,174.14,36.06,0.49,-2.49,10.78
6641,-91.88,155.84,29.51,1.58,-2.08,10.29
6646,-62.04,123.55,16.35,3.32,-1.35,9.52
6651,-39.84,99.40,5.21,4.49,-0.78,9.00
6657,-24.47,82.13,-2.93,5.24,-0.38,8.67
6661,-13.85,69.38,-8.71,5.74,-0.11,8.45
6667,-5.42,58.26,-13.45,6.09,0.10,8.31
6672,4.10,45.11,-19.05,6.44,0.34,8.32
6676,10.40,35.90,-22.81,6.63,0.49,8.42
6681,14.71,29.29,-25.33,6.74,0.59,8.54
6686,62.01,-75.79,-20.41,4.79,0.67,15.28
6691,62.57,-78.49,-18.55,4.59,0.57,15.24
6696,63.03,-80.58,-17.13,4.43,0.48,15.19
6702,63.65,-83.18,-15.40,4.25,0.37,15.11
6706,63.93,-84.28,-14.70,4.17,0.33,15.07
6711,64.21,-85.32,-14.04,4.10,0.28,15.01
6717,64.71,-87.03,-12.99,3.99,0.20,14.90
6722,65.50,-89.53,-11.52,3.86,0.07,14.63
6726,65.84,-90.64,-10.86,3.80,0.01,14.46
6731,66.04,-91.35,-10.43,3.76,-0.03,14.35
6736,66.16,-91.82,-10.12,3.74,-0.05,14.27
6741,66.26,-92.25,-9.83,3.71,-0.07,14.21
6746,66.43,-93.08,-9.27,3.67,-0.11,14.08
6752,66.73,-94.89,-7.96,3.55,-0.20,13.85
6757,66.92,-96.25,-6.94,3.46,-0.26,13.69
6761,67.17,-98.33,-5.33,3.31,-0.34,13.48
6767,67.38,-100.38,-3.72,3.16,-0.43,13.29
6771,67.16,-131.96,32.72,-1.11,-6.17,8.78
6776,61.50,-136.59,40.16,-2.87,-8.59,7.63
6781,51.16,-136.46,41.60,-4.10,-9.95,7.06
6786,-40.14,-61.99,0.56,-6.35,-7.95,7.90
6791,-41.47,-59.49,0.16,-6.22,-7.42,8.15
6796,-45.89,-50.74,-0.99,-5.59,-5.35,9.10
6802,-45.91,-50.46,-0.89,-5.52,-5.20,9.15
6806,-45.92,-50.19,-0.79,-5.45,-5.07,9.20
6811,-45.93,-50.00,-0.70,-5.40,-4.97,9.24
6817,-45.94,-49.81,-0.60,-5.35,-4.88,9.27
6821,-45.96,-49.58,-0.46,-5.28,-4.77,9.31
6826,-45.97,-49.15,-0.15,-5.15,-4.56,9.39
6831,-45.98,-48.79,0.18,-5.03,-4.38,9.46
6836,-45.98,-48.27,0.78,-4.82,-4.13,9.55
6841,-45.96,-48.06,1.08,-4.72,-4.02,9.59
6846,-45.95,-47.94,1.28,-4.65,-3.96,9.61
6852,-45.93,-47.79,1.52,-4.57,-3.88,9.64
6856,-45.90,-47.67,1.75,-4.49,-3.81,9.66
6862,-45.85,-47.51,2.09,-4.37,-3.71,9.70
6866,-45.11,-47.36,5.95,-3.36,-3.22,9.84
6871,-45.00,-47.44,6.47,-3.24,-3.21,9.84
6876,-44.92,-47.50,6.85,-3.15,-3.20,9.84
6881,-44.83,-47.57,7.28,-3.05,-3.20,9.84
6886,-44.65,-47.73,8.13,-2.85,-3.21,9.84
6891,-44.47,-47.88,8.93,-2.66,-3.22,9.83
6896,-43.63,-49.03,14.06,-1.29,-3.38,9.75
6901,-43.16,-50.12,16.47,-0.31,-3.57,9.68
6906,-43.09,-50.39,16.70,-0.11,-3.62,9.66
6911,-43.03,-50.65,16.88,0.07,-3.67,9.65
6917,-42.95,-51.02,17.00,0.31,-3.73,9.63
6921,-42.90,-51.34,16.94,0.47,-3.78,9.61
6926,-42.87,-51.65,16.71,0.59,-3.81,9.60
6931,-42.85,-51.87,16.47,0.65,-3.82,9.60
6936,-42.83,-52.21,16.02,0.74,-3.84,9.59
6941,-42.81,-52.49,15.65,0.80,-3.85,9.59
6946,-42.80,-52.74,15.29,0.86,-3.86,9.58
6951,-42.76,-53.40,14.34,1.02,-3.89,9.57
6957,-42.72,-54.37,12.86,1.24,-3.91,9.56
6961,-42.71,-54.76,12.24,1.32,-3.92,9.56
6966,-42.69,-55.04,11.77,1.39,-3.92,9.56
6971,-42.68,-55.34,11.27,1.45,-3.93,9.55
6976,-42.67,-55.54,10.94,1.49,-3.93,9.55
6981,-42.66,-55.74,10.60,1.54,-3.93,9.55
6987,-42.65,-55.92,10.29,1.58,-3.93,9.55
6991,-42.64,-56.10,9.98,1.62,-3.93,9.55
6997,-42.63,-56.33,9.58,1.67,-3.93,9.55
7001,-42.61,-56.69,8.94,1.75,-3.93,9.55
7006,-42.58,-57.20,8.06,1.86,-3.93,9.55
7011,-42.54,-57.69,7.26,1.95,-3.92,9.55
7017,-42.48,-58.35,6.30,2.05,-3.91,9.56
7022,-42.36,-59.60,4.54,2.22,-3.87,9.57
7026,-42.24,-60.65,3.15,2.34,-3.83,9.58
7031,-39.76,-75.00,-13.87,3.55,-3.14,9.91
7037,-38.40,-80.63,-19.83,3.91,-2.82,10.08
7041,-37.98,-82.25,-21.49,4.00,-2.73,10.13
7046,-37.66,-83.37,-22.60,4.06,-2.66,10.16
7051,-37.16,-85.05,-24.23,4.14,-2.56,10.22
7056,-35.55,-90.09,-29.21,4.41,-2.25,10.41
7061,-34.20,-93.99,-32.96,4.54,-2.00,10.56
7067,-33.60,-95.69,-34.51,4.57,-1.89,10.62
7071,-32.79,-98.00,-36.56,4.58,-1.77,10.70
7076,-30.61,-103.30,-40.95,4.57,-1.48,10.92
7081,-29.17,-106.49,-43.31,4.55,-1.34,11.03
7086,-28.46,-107.97,-44.19,4.53,-1.31,11.06
7091,-28.12,-108.67,-44.59,4.51,-1.30,11.08
7096,-26.85,-111.10,-45.96,4.41,-1.25,11.15
7101,-26.65,-111.47,-46.16,4.38,-1.25,11.16
7106,-26.39,-111.94,-46.40,4.35,-1.24,11.17
7111,-25.95,-112.75,-46.82,4.29,-1.23,11.19
7116,-25.44,-113.69,-47.30,4.23,-1.23,11.21
7121,-21.31,-121.63,-51.16,3.84,-1.25,11.32
7127,-20.47,-123.17,-51.85,3.76,-1.25,11.33
7132,-18.02,-127.54,-53.80,3.53,-1.28,11.37
7136,-17.32,-128.73,-54.33,3.47,-1.29,11.38
7142,-16.67,-129.83,-54.82,3.40,-1.30,11.39
7146,-16.05,-130.84,-55.29,3.35,-1.31,11.40
7151,-15.46,-131.79,-55.73,3.29,-1.32,11.40
7156,-14.89,-132.71,-56.16,3.23,-1.33,11.41
7161,-13.73,-134.51,-57.01,3.12,-1.35,11.42
7167,-12.95,-135.71,-57.56,3.04,-1.37,11.43
7171,-11.40,-138.05,-58.57,2.89,-1.40,11.44
7176,-10.12,-139.94,-59.22,2.76,-1.44,11.45
7181,-9.16,-141.19,-59.33,2.67,-1.47,11.45
7186,-8.44,-141.97,-59.10,2.60,-1.49,11.45
7191,-7.92,-142.43,-58.76,2.55,-1.50,11.45
7196,-7.38,-142.83,-58.24,2.50,-1.52,11.46
7202,-6.55,-143.23,-57.18,2.42,-1.55,11.46
7206,-5.40,-143.43,-55.24,2.32,-1.59,11.46
7211,-4.61,-143.28,-53.67,2.25,-1.62,11.46
7216,-3.77,-142.35,-51.50,2.18,-1.65,11.46
7221,-2.90,-140.47,-48.69,2.11,-1.68,11.46
7226,-2.14,-138.17,-45.94,2.05,-1.71,11.46
7232,-1.58,-136.10,-43.76,2.01,-1.74,11.46
7237,-1.15,-134.37,-42.07,1.98,-1.75,11.46
7241,-0.50,-131.56,-39.53,1.92,-1.78,11.47
7246,0.47,-127.03,-35.86,1.84,-1.82,11.47
7251,2.03,-116.92,-29.89,1.68,-1.89,11.47
7256,3.21,-106.78,-25.11,1.55,-1.95,11.47
7261,4.21,-97.76,-21.15,1.43,-2.00,11.48
7267,5.22,-88.94,-17.36,1.31,-2.05,11.48
7271,6.20,-81.59,-14.13,1.18,-2.10,11.48
7276,10.49,-57.77,-4.17,0.54,-2.28,11.50
7281,11.50,-54.85,-2.91,0.38,-2.32,11.50
7286,12.93,-53.40,-1.89,0.16,-2.36,11.50
7291,13.68,-54.41,-1.89,0.04,-2.38,11.50
7296,14.30,-56.32,-2.28,-0.05,-2.39,11.50
7302,15.45,-61.65,-3.67,-0.23,-2.41,11.50
7306,16.12,-65.45,-4.78,-0.32,-2.42,11.50
7311,16.79,-69.69,-6.11,-0.42,-2.43,11.50
7318,17.91,-77.13,-8.63,-0.58,-2.45,11.50
7322,20.15,-92.36,-14.77,-0.86,-2.47,11.50
7326,23.17,-118.15,-29.17,-1.19,-2.49,11.48
7331,26.47,-142.20,-45.27,-1.47,-2.51,11.46
7336,27.50,-145.43,-48.38,-1.53,-2.52,11.45
7341,28.75,-149.96,-52.62,-1.60,-2.52,11.45
7346,29.53,-153.43,-55.74,-1.63,-2.52,11.44
7351,30.26,-157.47,-59.26,-1.66,-2.53,11.44
7356,32.10,-166.85,-68.28,-1.73,-2.53,11.42
7361,33.40,-170.26,-72.52,-1.79,-2.54,11.42
7366,41.21,-178.03,-86.21,-2.08,-2.59,11.42
7371,47.56,-178.75,-89.66,-2.29,-2.67,11.44
7377,56.66,-168.67,-86.79,-2.66,-2.93,11.75
7381,57.90,-166.16,-84.94,-2.72,-2.99,11.86
7387,62.70,-153.75,-75.71,-3.03,-3.23,12.45
7391,64.10,-147.92,-71.05,-3.23,-3.32,12.78
7396,64.61,-144.79,-68.35,-3.36,-3.36,12.94
7401,65.19,-140.08,-63.78,-3.66,-3.40,13.17
7406,65.68,-134.96,-58.44,-4.12,-3.45,13.39
7411,65.75,-131.44,-54.21,-4.56,-3.45,13.46
7417,65.37,-126.28,-47.08,-5.41,-3.41,13.48
7421,64.34,-122.29,-40.55,-6.18,-3.34,13.39
7426,62.09,-118.23,-32.70,-6.98,-3.23,13.21
7431,58.21,-114.46,-23.87,-7.65,-3.11,12.98
7436,53.81,-111.59,-16.10,-8.12,-3.01,12.73
7442,44.72,-107.55,-3.43,-8.67,-2.89,12.20
7446,36.50,-104.54,6.47,-9.29,-2.65,11.55
7451,29.10,-102.16,14.48,-9.96,-2.27,10.80
7456,21.14,-99.62,22.97,-10.92,-1.69,9.89
7461,8.95,-95.81,35.29,-12.69,-0.57,8.28
7466,-0.59,-92.94,44.04,-14.02,0.24,7.00
7471,-12.22,-89.32,54.09,-15.52,1.10,5.37
7476,-22.54,-85.80,62.43,-16.49,1.42,3.73
7481,-30.95,-81.69,70.11,-17.02,1.38,2.16
7486,-37.04,-74.89,77.85,-17.19,0.85,0.75
7491,-42.12,-50.74,90.39,-16.43,-1.51,-1.02
7497,-42.34,-41.26,92.97,-15.93,-2.39,-1.30
7501,-42.32,-33.62,94.19,-15.49,-3.07,-1.44
7506,-40.56,-23.75,95.16,-14.84,-3.89,-1.52
7511,-30.30,-1.99,95.50,-13.09,-5.55,-1.38
7517,-7.66,30.53,94.22,-10.53,-7.66,-0.80
7521,54.15,93.85,85.69,-4.98,-11.56,0.70
7526,71.89,104.75,78.42,-3.03,-12.44,1.06
7531,76.46,107.37,75.46,-2.48,-12.63,1.14
7537,91.02,114.61,61.44,-0.57,-12.87,1.27
7541,98.81,117.54,49.30,0.63,-12.48,1.18
7546,110.23,122.08,18.79,2.63,-10.53,0.57
7552,113.11,123.72,0.69,3.15,-8.75,-0.11
7556,113.01,126.40,-28.70,3.02,-5.38,-1.47
7561,110.65,129.42,-46.77,2.47,-3.31,-2.32
7566,102.78,139.19,-74.81,1.24,-0.11,-3.48
7572,82.25,170.07,-96.70,-0.65,2.57,-2.38
7576,76.74,179.49,-98.81,-0.98,2.95,-1.43
7581,70.08,191.32,-100.78,-1.32,3.34,0.14
7586,58.95,211.45,-101.82,-1.87,3.69,3.71
7591,51.06,225.98,-100.61,-2.25,3.68,7.32
7596,45.46,237.18,-98.75,-2.58,3.49,10.95
7601,46.20,247.62,-87.88,-4.12,1.72,21.85
7606,48.35,245.88,-86.27,-4.28,1.52,22.58
7611,52.56,241.32,-83.69,-4.52,1.24,23.53
7617,74.29,207.55,-69.71,-5.19,0.29,25.29
7621,91.90,166.52,-53.66,-5.22,-0.14,25.06
7626,101.90,133.94,-41.36,-4.99,-0.32,24.16
7632,110.79,84.48,-23.70,-3.88,-0.37,21.58
7637,111.76,73.75,-20.12,-3.53,-0.32,20.90
7641,112.35,65.58,-17.46,-3.22,-0.26,20.33
7646,113.84,38.25,-8.72,-1.95,0.12,18.10
7651,113.10,28.85,-5.73,-1.39,0.49,17.18
7656,110.09,23.59,-3.74,-0.98,0.91,16.56
7661,98.55,19.37,-0.79,-0.48,1.76,15.30
7667,82.53,17.91,0.75,-0.26,2.43,14.38
7671,62.49,17.44,1.45,-0.23,2.66,13.65
7677,46.12,16.59,1.49,-0.19,2.50,13.17
7681,29.04,13.99,1.30,-0.09,1.94,12.70
7686,18.35,11.74,1.12,-0.01,1.46,12.36
7691,8.84,8.10,0.74,0.14,0.76,11.90
7696,8.20,7.71,0.70,0.16,0.68,11.86
7701,-0.11,3.99,0.25,0.34,-0.02,11.38
7706,-10.14,-2.92,-0.58,0.68,-1.18,10.25
7711,-11.66,-4.14,-0.76,0.75,-1.38,9.99
7716,-13.00,-5.27,-1.28,0.83,-1.57,9.68
7721,-13.31,-5.53,-1.71,0.86,-1.61,9.56
7726,-13.23,-5.41,-2.13,0.88,-1.61,9.53
7732,-12.68,-4.77,-2.85,0.90,-1.55,9.53
7737,-12.35,-4.35,-3.17,0.91,-1.53,9.53
7741,-12.09,-4.02,-3.36,0.92,-1.53,9.52
7746,-11.47,-3.22,-3.68,0.93,-1.54,9.47
7751,-10.70,-2.38,-3.82,0.93,-1.67,9.26
7756,-9.78,-1.84,-3.70,0.93,-1.79,9.09
7761,-9.10,-1.51,-3.59,0.93,-1.83,9.03
7767,-8.45,-1.23,-3.48,0.93,-1.86,9.00
7771,-7.30,-0.79,-3.29,0.94,-1.89,8.96
7777,-4.92,0.07,-2.93,0.94,-1.90,8.94
7781,-2.28,0.97,-2.56,0.94,-1.91,8.93
7786,0.56,1.92,-2.19,0.94,-1.91,8.93
7791,5.24,3.41,-1.65,0.93,-1.88,8.96
7796,8.01,4.28,-1.37,0.93,-1.86,8.97
7801,12.56,5.75,-0.98,0.92,-1.79,9.00
7806,17.39,7.35,-0.70,0.89,-1.67,9.03
7811,19.26,8.00,-0.63,0.87,-1.61,9.06
7817,21.87,8.93,-0.56,0.84,-1.51,9.13
7821,24.71,9.95,-0.56,0.79,-1.37,9.30
7826,25.98,10.40,-0.61,0.76,-1.29,9.44
7832,27.26,10.84,-0.72,0.72,-1.16,9.66
7836,28.25,11.18,-0.92,0.66,-0.95,9.95
7841,28.34,11.21,-1.01,0.64,-0.85,10.05
7846,28.26,11.22,-1.14,0.60,-0.69,10.18
7851,28.04,11.19,-1.21,0.57,-0.60,10.25
7856,27.77,11.16,-1.23,0.56,-0.56,10.29
7861,26.89,11.06,-1.27,0.53,-0.48,10.36
7867,24.41,10.74,-1.29,0.48,-0.42,10.46
7871,22.01,10.28,-1.29,0.46,-0.42,10.48
7877,18.15,9.38,-1.27,0.44,-0.43,10.50
7882,16.56,8.88,-1.26,0.43,-0.44,10.49
7886,14.91,8.34,-1.26,0.43,-0.46,10.47
7891,9.56,6.49,-1.32,0.43,-0.52,10.39
7896,8.73,6.17,-1.34,0.43,-0.54,10.37
7901,7.64,5.75,-1.38,0.44,-0.56,10.34
7906,3.67,4.07,-1.63,0.47,-0.83,10.17
7911,3.37,3.93,-1.67,0.48,-0.92,10.14
7917,3.25,3.87,-1.69,0.49,-0.98,10.12
7922,3.25,3.83,-1.69,0.51,-1.08,10.09
7927,3.40,3.86,-1.68,0.52,-1.16,10.07
7931,3.52,3.88,-1.66,0.53,-1.20,10.05
7936,4.00,3.96,-1.58,0.56,-1.30,10.01
7941,4.32,4.03,-1.52,0.57,-1.33,10.00
7947,4.79,4.15,-1.42,0.57,-1.35,9.98
7951,5.91,4.46,-1.20,0.58,-1.35,9.95
7956,7.35,4.99,-0.92,0.59,-1.35,9.93
7961,8.68,5.56,-0.67,0.60,-1.34,9.91
7966,13.74,8.37,0.32,0.59,-1.22,9.91
7971,14.49,8.87,0.49,0.59,-1.17,9.91
7976,15.53,9.69,0.76,0.56,-1.04,9.92
7981,15.77,9.96,0.84,0.55,-1.00,9.93
7986,15.91,10.14,0.90,0.54,-0.96,9.94
7991,16.04,10.31,0.95,0.54,-0.93,9.94
7996,16.43,11.17,1.17,0.48,-0.78,9.98
8001,16.35,11.55,1.27,0.45,-0.71,10.02
8006,16.28,11.67,1.31,0.43,-0.68,10.04
8011,16.06,11.88,1.40,0.39,-0.62,10.09
8017,15.90,11.93,1.44,0.38,-0.59,10.11
8021,15.26,11.91,1.57,0.35,-0.50,10.17
8026,14.39,11.72,1.69,0.33,-0.43,10.21
8031,11.26,10.57,1.97,0.31,-0.33,10.28
8036,10.82,10.38,2.00,0.31,-0.32,10.28
8041,10.52,10.25,2.01,0.32,-0.32,10.28
8046,9.83,9.95,2.04,0.32,-0.32,10.29
8051,6.25,8.23,2.02,0.34,-0.32,10.27
8056,4.62,7.33,1.87,0.35,-0.33,10.24
8061,3.68,6.80,1.72,0.36,-0.35,10.23
8066,3.27,6.55,1.64,0.36,-0.36,10.22
8071,2.74,6.19,1.48,0.36,-0.37,10.22
8076,0.20,4.27,0.35,0.32,-0.41,10.30
8082,-0.20,3.93,0.15,0.30,-0.42,10.33
8086,-1.17,3.06,-0.37,0.26,-0.42,10.41
8091,-1.61,2.67,-0.54,0.24,-0.42,10.45
8097,-2.01,2.30,-0.69,0.22,-0.42,10.48
8101,-3.08,1.32,-1.06,0.17,-0.41,10.57
8106,-5.71,-1.00,-1.76,0.06,-0.40,10.72
8111,-7.03,-2.12,-2.06,0.01,-0.39,10.72
8117,-7.96,-2.77,-2.18,-0.02,-0.39,10.71
8121,-9.01,-3.42,-2.28,-0.07,-0.39,10.68
8126,-9.09,-3.47,-2.31,-0.07,-0.40,10.66
8131,-9.10,-3.47,-2.32,-0.05,-0.42,10.63
8136,-9.18,-3.51,-2.34,-0.03,-0.45,10.61
8141,-9.37,-3.61,-2.36,0.00,-0.47,10.59
8146,-10.13,-4.04,-2.42,0.06,-0.52,10.54
8151,-12.39,-5.20,-2.54,0.21,-0.69,10.40
8156,-13.11,-5.53,-2.57,0.26,-0.76,10.34
8161,-14.90,-6.33,-2.64,0.39,-0.93,10.19
8166,-19.41,-8.25,-2.71,0.76,-1.39,9.83
8171,-20.09,-8.52,-2.71,0.82,-1.47,9.77
8177,-20.26,-8.58,-2.70,0.84,-1.50,9.75
8181,-20.40,-8.56,-2.67,0.88,-1.55,9.71
8186,-19.94,-8.16,-2.57,0.92,-1.60,9.67
8191,-17.45,-6.57,-2.30,0.92,-1.60,9.66
8196,-16.41,-5.98,-2.20,0.91,-1.60,9.67
8202,-12.53,-3.91,-1.86,0.86,-1.56,9.69
8206,-4.20,0.06,-1.18,0.69,-1.43,9.78
8211,-1.40,1.27,-0.98,0.60,-1.38,9.82
8217,0.83,2.09,-0.80,0.53,-1.31,9.84
8222,1.93,2.49,-0.71,0.49,-1.27,9.86
8226,2.13,2.59,-0.71,0.48,-1.27,9.86
8232,2.42,2.71,-0.69,0.46,-1.25,9.87
8236,5.08,3.52,-0.26,0.39,-1.11,9.88
8241,5.50,3.67,-0.14,0.39,-1.07,9.88
8246,5.63,3.70,-0.11,0.39,-1.06,9.88
8251,6.84,4.41,0.27,0.41,-0.96,9.90
8257,6.89,4.47,0.28,0.41,-0.95,9.90
8261,7.02,4.65,0.33,0.41,-0.95,9.93
8267,7.06,4.72,0.34,0.41,-0.94,9.96
8271,7.16,4.81,0.38,0.39,-0.94,10.01
8276,7.33,4.89,0.45,0.32,-0.93,10.09
8281,7.39,4.90,0.48,0.29,-0.92,10.11
8286,7.43,4.90,0.50,0.27,-0.91,10.12
8291,7.50,4.89,0.58,0.21,-0.86,10.12
8296,7.44,4.82,0.68,0.16,-0.80,10.11
8301,7.17,4.63,0.76,0.15,-0.75,10.10
8306,7.03,4.54,0.78,0.16,-0.74,10.10
8311,6.83,4.39,0.80,0.16,-0.72,10.09
8316,6.57,4.20,0.81,0.18,-0.71,10.08
8321,5.83,3.62,0.81,0.20,-0.67,10.08
8326,5.35,3.24,0.80,0.21,-0.66,10.08
8332,4.65,2.71,0.76,0.22,-0.63,10.09
8337,3.91,2.20,0.69,0.23,-0.60,10.11
8341,3.37,1.86,0.62,0.23,-0.59,10.12
8346,2.54,1.39,0.50,0.24,-0.57,10.14
8351,1.87,1.06,0.37,0.25,-0.57,10.13
8356,1.40,0.82,0.27,0.25,-0.57,10.13
8361,0.95,0.62,0.17,0.25,-0.57,10.13
8366,0.45,0.40,0.05,0.25,-0.57,10.12
8371,0.18,0.29,-0.01,0.25,-0.58,10.12
8376,-0.61,-0.02,-0.20,0.25,-0.61,10.11
8382,-1.66,-0.34,-0.50,0.25,-0.68,10.11
8386,-1.89,-0.39,-0.57,0.25,-0.70,10.11
8391,-2.23,-0.43,-0.69,0.25,-0.74,10.10
8396,-2.50,-0.41,-0.80,0.26,-0.77,10.09
8401,-2.66,-0.35,-0.89,0.27,-0.80,10.09
8406,-2.80,-0.07,-1.02,0.31,-0.86,10.07
8411,-2.81,-0.01,-1.03,0.32,-0.87,10.07
8416,-2.81,0.04,-1.05,0.32,-0.87,10.07
8421,-2.80,0.23,-1.07,0.33,-0.89,10.06
8426,-2.78,0.30,-1.08,0.33,-0.89,10.06
8431,-2.74,0.42,-1.08,0.33,-0.90,10.06
8437,-2.52,0.72,-1.07,0.32,-0.89,10.08
8442,-2.49,0.76,-1.07,0.31,-0.88,10.08
8447,-2.44,0.83,-1.06,0.31,-0.88,10.10
8452,-2.41,0.88,-1.06,0.30,-0.87,10.11
8456,-2.40,0.91,-1.05,0.29,-0.87,10.12
8461,-2.39,0.98,-1.03,0.28,-0.86,10.14
8466,-2.55,1.12,-1.00,0.27,-0.85,10.15
8471,-2.60,1.15,-1.00,0.27,-0.85,10.15
8476,-2.64,1.18,-1.00,0.27,-0.85,10.15
8482,-2.71,1.23,-1.00,0.28,-0.86,10.14
8486,-2.79,1.29,-1.00,0.29,-0.86,10.13
8491,-2.93,1.41,-1.01,0.31,-0.87,10.09
8496,-2.99,1.48,-1.03,0.33,-0.87,10.06
8501,-3.01,1.52,-1.03,0.34,-0.87,10.05
8506,-3.02,1.61,-1.05,0.35,-0.86,10.02
8511,-3.01,1.72,-1.06,0.35,-0.86,9.99
8517,-2.99,1.77,-1.06,0.36,-0.86,9.98
8521,-2.92,1.85,-1.06,0.35,-0.85,9.96
8526,-2.71,1.95,-1.07,0.35,-0.85,9.93
8531,-2.46,2.00,-1.08,0.34,-0.86,9.92
8537,-2.25,2.02,-1.11,0.32,-0.87,9.91
8542,-2.07,2.04,-1.16,0.30,-0.88,9.91
8547,-2.03,2.05,-1.18,0.29,-0.88,9.91
8551,-1.95,2.07,-1.22,0.28,-0.89,9.91
8557,-1.82,2.14,-1.34,0.25,-0.88,9.91
8561,-1.80,2.15,-1.38,0.25,-0.88,9.85
8566,-1.79,2.19,-1.45,0.24,-0.87,9.43
8571,-1.84,2.24,-1.64,0.24,-0.84,7.15
8576,-1.87,2.24,-1.69,0.24,-0.83,6.29
8582,-1.98,2.25,-1.78,0.25,-0.81,4.62
8586,-2.36,2.24,-1.93,0.25,-0.73,1.61
8591,-2.62,2.22,-2.01,0.25,-0.67,0.53
8596,-2.75,2.19,-2.03,0.25,-0.64,0.03
8601,-2.98,2.11,-2.06,0.25,-0.58,-0.54
8606,-3.11,2.05,-2.07,0.25,-0.55,-0.61
8611,-3.32,1.97,-2.12,0.25,-0.51,-0.52
8617,-4.47,1.46,-2.35,0.25,-0.37,0.06
8621,-5.63,0.96,-2.62,0.24,-0.28,0.83
8626,-6.26,0.69,-2.81,0.23,-0.27,1.95
8632,-6.82,0.47,-2.99,0.21,-0.30,3.18
8636,-7.46,0.25,-3.19,0.20,-0.34,4.15
8641,-9.50,-0.32,-3.98,0.08,-0.49,7.95
8646,-12.00,-1.25,-4.89,-0.01,-0.55,10.09
8651,-14.36,-2.33,-5.75,-0.02,-0.56,10.87
8656,-15.89,-3.19,-6.34,-0.01,-0.54,11.17
8661,-18.26,-4.60,-7.27,-0.01,-0.49,11.26
8666,-20.71,-6.20,-8.37,-0.01,-0.41,11.18
8671,-23.73,-8.20,-9.65,-0.03,-0.31,11.05
8676,-27.50,-10.67,-11.14,-0.09,-0.19,10.86
8681,-30.44,-12.49,-12.13,-0.10,-0.12,10.79
8686,-32.59,-13.73,-12.80,-0.08,-0.07,10.76
8691,-37.77,-16.40,-14.47,-0.01,-0.02,10.73
8696,-41.90,-18.28,-15.85,0.07,0.01,10.72
8701,-48.71,-20.22,-18.01,0.22,0.03,10.68
8706,-50.40,-20.65,-18.53,0.26,0.03,10.66
8711,-53.02,-21.23,-19.33,0.33,0.02,10.61
8717,-55.91,-21.75,-20.19,0.40,-0.00,10.54
8721,-66.60,-23.00,-23.24,0.66,-0.15,10.24
8726,-75.41,-23.61,-25.52,0.88,-0.44,9.89
8732,-85.21,-23.98,-28.11,1.14,-0.95,9.43
8737,-100.18,-21.50,-32.28,1.57,-2.61,8.47
8741,-104.52,-18.43,-33.87,1.72,-3.50,8.08
8746,-105.34,-16.21,-34.51,1.77,-3.91,7.93
8751,-103.33,-8.94,-35.82,1.82,-4.81,7.67
8757,-98.09,-1.27,-36.58,1.84,-5.35,7.54
8761,-89.81,7.07,-37.00,1.83,-5.68,7.50
8767,-72.28,18.68,-36.45,1.79,-5.77,7.54
8771,-62.24,23.86,-35.72,1.78,-5.70,7.58
8777,-50.78,28.97,-34.38,1.77,-5.54,7.64
8781,-25.70,38.51,-30.92,1.76,-5.12,7.73
8786,-19.34,40.74,-29.89,1.76,-5.01,7.76
8791,-11.41,43.67,-28.38,1.75,-4.87,7.78
8796,5.27,50.25,-24.21,1.71,-4.55,7.85
8801,11.05,53.17,-21.94,1.70,-4.40,7.90
8806,24.64,61.66,-14.33,1.65,-3.94,8.16
8811,29.17,65.42,-11.12,1.60,-3.69,8.32
8816,38.46,75.64,-2.81,1.43,-2.86,8.81
8821,39.64,77.76,-1.16,1.38,-2.66,8.92
8826,40.66,81.01,1.37,1.31,-2.39,9.06
8832,41.01,82.79,2.82,1.26,-2.25,9.13
8837,41.30,88.97,7.28,1.09,-1.82,9.32
8841,40.49,93.05,9.45,0.99,-1.62,9.39
8846,38.32,98.74,11.58,0.82,-1.41,9.48
8851,35.53,103.51,12.56,0.66,-1.27,9.60
8856,28.61,110.80,13.03,0.31,-1.06,9.83
8861,22.86,114.81,12.63,0.03,-0.93,10.01
8866,16.99,118.10,11.94,-0.24,-0.82,10.18
8871,6.60,122.63,9.45,-0.73,-0.68,10.40
8876,-1.04,125.05,6.47,-1.05,-0.63,10.50
8881,-4.03,125.84,4.98,-1.16,-0.63,10.53
8886,-17.99,128.33,-4.48,-1.57,-0.64,10.57
8891,-34.13,128.88,-18.22,-1.75,-0.75,10.48
8897,-42.43,128.67,-24.53,-1.77,-0.93,10.40
8901,-48.97,128.50,-28.70,-1.78,-1.15,10.34
8906,-54.37,128.34,-31.56,-1.80,-1.45,10.30
8911,-59.87,128.23,-34.56,-1.82,-1.86,10.24
8917,-69.34,128.57,-42.51,-2.08,-2.95,10.08
8921,-69.57,128.64,-43.12,-2.10,-3.00,10.06
8926,-69.78,128.83,-44.42,-2.16,-3.08,10.04
8932,-69.38,129.25,-47.07,-2.25,-3.17,10.04
8937,-68.90,129.58,-48.79,-2.31,-3.20,10.04
8941,-67.89,130.02,-51.10,-2.38,-3.22,10.04
8946,-63.56,130.49,-55.23,-2.57,-3.20,10.04
8951,-62.54,130.32,-55.62,-2.62,-3.19,10.01
8956,-60.64,129.90,-55.89,-2.71,-3.18,9.95
8961,-59.72,129.64,-55.93,-2.77,-3.16,9.93
8967,-58.22,129.12,-55.90,-2.85,-3.12,9.90
8971,-52.74,126.53,-54.18,-3.08,-2.78,9.96
8976,-52.02,126.02,-53.38,-3.09,-2.72,10.00
8982,-51.08,125.19,-51.40,-3.10,-2.62,10.09
8986,-50.80,124.93,-50.21,-3.10,-2.60,10.13
8991,-50.50,124.22,-45.78,-3.08,-2.53,10.23
8997,-51.03,123.32,-37.88,-3.04,-2.42,10.32
9001,-52.21,122.07,-29.35,-2.98,-2.32,10.38
9006,-53.42,120.97,-23.57,-2.94,-2.27,10.39
9011,-55.39,119.11,-14.82,-2.89,-2.23,10.39
9016,-56.59,117.75,-9.80,-2.87,-2.24,10.37
9021,-60.40,112.62,5.68,-2.86,-2.39,10.27
9026,-63.47,107.57,18.21,-2.88,-2.63,10.14
9031,-66.30,102.26,30.20,-2.88,-2.88,10.02
9036,-68.28,98.28,38.57,-2.87,-3.07,9.95
9041,-70.77,92.98,49.74,-2.85,-3.29,9.90
9047,-71.80,90.67,54.57,-2.84,-3.38,9.89
9051,-74.38,84.41,67.59,-2.79,-3.59,9.89
9056,-77.75,75.16,87.15,-2.73,-3.82,9.99
9061,-79.39,69.74,98.67,-2.64,-3.91,10.11
9066,-80.36,66.12,106.44,-2.50,-3.96,10.26
9071,-81.54,60.40,118.72,-2.16,-4.02,10.62
9077,-81.96,57.93,124.45,-1.84,-4.05,10.88
9082,-82.47,53.22,133.65,-1.08,-4.08,11.40
9086,-81.20,45.37,142.76,0.55,-4.08,12.14
9091,-78.92,38.54,145.05,1.52,-4.04,12.42
9096,-75.91,32.30,146.22,2.20,-3.99,12.53
9101,-69.32,19.97,147.74,3.09,-3.88,12.54
9106,-65.04,12.71,148.32,3.43,-3.81,12.49
9111,-59.18,3.04,149.01,3.75,-3.72,12.38
9117,-39.26,-29.35,151.39,4.17,-3.46,11.78
9121,-30.28,-44.93,152.23,4.18,-3.44,11.44
9126,-25.93,-52.82,152.56,4.14,-3.53,11.25
9131,-20.79,-63.10,152.79,4.04,-3.83,10.94
9136,-17.91,-69.30,152.73,3.94,-4.28,10.74
9142,-16.81,-71.96,152.61,3.89,-4.54,10.65
9146,-14.63,-78.41,151.82,3.69,-5.58,10.31
9151,-13.91,-81.73,150.49,3.53,-6.38,10.03
9156,-13.83,-83.07,149.17,3.46,-6.73,9.88
9161,-14.02,-84.76,146.59,3.36,-7.12,9.66
9167,-14.58,-86.65,141.61,3.25,-7.44,9.39
9171,-15.27,-87.74,137.14,3.15,-7.58,9.23
9176,-17.22,-89.01,128.23,2.96,-7.72,9.05
9182,-19.18,-89.39,121.04,2.81,-7.75,8.99
9186,-20.43,-89.47,117.15,2.73,-7.76,8.97
9192,-22.82,-89.34,110.11,2.58,-7.76,8.99
9197,-26.03,-88.82,101.30,2.38,-7.70,9.05
9201,-28.32,-88.33,95.02,2.22,-7.64,9.13
9206,-32.33,-87.20,83.62,1.89,-7.43,9.32
9211,-34.76,-86.46,76.37,1.65,-7.24,9.46
9217,-36.71,-85.81,70.13,1.43,-7.03,9.59
9221,-38.49,-85.18,63.90,1.17,-6.74,9.76
9226,-39.88,-84.68,58.72,0.90,-6.38,9.94
9232,-40.85,-84.16,53.65,0.63,-5.99,10.14
9237,-41.79,-83.28,46.14,0.26,-5.36,10.46
9241,-42.18,-82.60,40.71,0.05,-4.98,10.66
9246,-42.48,-81.76,34.51,-0.14,-4.62,10.86
9251,-42.73,-80.47,24.68,-0.40,-4.06,11.15
9256,-42.69,-79.33,15.65,-0.60,-3.55,11.38
9261,-42.49,-78.67,9.84,-0.73,-3.18,11.52
9267,-41.14,-77.71,-1.47,-1.01,-2.25,11.77
9272,-40.19,-77.50,-5.58,-1.12,-1.85,11.86
9276,-39.33,-77.39,-8.25,-1.19,-1.56,11.91
9281,-37.91,-77.41,-11.20,-1.27,-1.24,11.95
9286,-35.55,-77.62,-13.99,-1.35,-0.96,11.95
9292,-33.50,-77.89,-15.45,-1.36,-0.89,11.93
9297,-31.61,-78.18,-16.37,-1.36,-0.88,11.89
9301,-26.79,-78.93,-18.47,-1.32,-0.96,11.74
9306,-24.12,-79.31,-19.61,-1.29,-1.05,11.64
9311,-21.21,-79.70,-20.87,-1.24,-1.17,11.53
9316,-17.55,-80.15,-22.52,-1.17,-1.36,11.38
9321,-12.42,-80.68,-25.23,-1.06,-1.68,11.16
9326,-8.96,-80.94,-27.63,-0.98,-1.93,11.02
9332,-5.28,-81.05,-30.55,-0.89,-2.18,10.91
9337,-1.54,-81.13,-33.94,-0.81,-2.40,10.81
9341,1.48,-81.17,-36.47,-0.73,-2.61,10.72
9346,6.24,-81.22,-40.79,-0.57,-2.98,10.58
9351,8.35,-81.28,-42.88,-0.49,-3.17,10.51
9356,11.28,-81.42,-46.34,-0.36,-3.44,10.42
9361,14.13,-81.85,-51.31,-0.24,-3.68,10.34
9366,16.37,-82.62,-57.17,-0.14,-3.86,10.27
9371,17.59,-83.47,-61.99,-0.08,-3.97,10.24
9376,19.20,-85.25,-70.13,-0.02,-4.10,10.18
9381,20.29,-87.13,-76.83,0.02,-4.20,10.13
9386,21.47,-89.37,-83.45,0.03,-4.31,10.07
9391,22.51,-91.33,-88.37,0.04,-4.41,10.01
9396,24.90,-95.72,-98.19,0.04,-4.70,9.84
9401,26.12,-97.81,-102.40,0.04,-4.88,9.74
9406,27.29,-99.75,-106.25,0.03,-5.06,9.64
9411,29.98,-103.81,-114.38,-0.01,-5.51,9.36
9416,30.76,-104.94,-116.60,-0.03,-5.63,9.23
9421,31.64,-106.12,-119.04,-0.09,-5.75,9.04
9426,33.05,-107.29,-122.78,-0.18,-5.83,8.72
9432,33.80,-107.77,-124.70,-0.23,-5.85,8.55
9436,35.03,-108.34,-127.59,-0.29,-5.84,8.34
9441,37.76,-108.98,-133.69,-0.38,-5.78,8.06
9446,41.45,-109.46,-140.55,-0.48,-5.66,7.82
9451,42.66,-109.50,-142.57,-0.50,-5.59,7.78
9456,44.18,-109.45,-144.88,-0.54,-5.49,7.79
9461,49.98,-108.80,-151.16,-0.76,-4.97,8.12
9466,53.51,-108.19,-152.92,-0.95,-4.51,8.59
9471,55.12,-107.89,-152.68,-1.05,-4.27,8.88
9476,58.17,-107.51,-151.16,-1.21,-3.90,9.36
9481,58.96,-107.43,-150.39,-1.24,-3.82,9.49
9486,61.66,-107.18,-146.77,-1.37,-3.52,9.94
9491,66.17,-106.93,-136.81,-1.62,-3.01,10.72
9496,69.68,-106.82,-125.59,-1.90,-2.55,11.51
9501,71.85,-107.11,-116.15,-2.15,-2.20,12.15
9506,72.49,-107.29,-113.05,-2.24,-2.09,12.37
9511,74.45,-108.42,-103.02,-2.66,-1.71,13.25
9517,75.21,-109.35,-98.54,-2.87,-1.58,13.64
9521,76.17,-111.36,-92.96,-3.19,-1.48,13.99
9526,76.63,-112.51,-88.72,-3.37,-1.45,14.05
9532,77.05,-113.68,-83.94,-3.56,-1.42,14.09
9536,77.53,-115.19,-76.97,-3.83,-1.37,14.09
9541,78.18,-117.56,-64.30,-4.40,-1.23,14.08
9547,78.46,-118.78,-56.69,-4.76,-1.14,14.06
9551,78.48,-121.31,-37.45,-5.74,-0.87,14.03
9556,77.98,-122.64,-22.87,-6.47,-0.69,14.00
9561,76.71,-123.42,-10.16,-7.06,-0.55,13.97
9567,73.79,-124.14,7.22,-7.84,-0.38,13.92
9571,69.56,-124.64,27.14,-8.72,-0.23,13.78
9576,65.29,-124.83,41.77,-9.40,-0.15,13.55
9582,55.70,-124.54,62.89,-10.58,-0.16,12.84
9586,47.87,-124.00,74.99,-11.33,-0.23,12.24
9591,39.52,-123.18,85.11,-11.98,-0.35,11.67
9597,26.08,-121.61,98.91,-12.87,-0.63,10.79
9601,7.12,-119.34,116.70,-14.02,-1.11,9.60
9606,-2.69,-117.87,125.09,-14.60,-1.43,8.94
9611,-16.20,-114.65,135.57,-15.48,-2.03,7.87
9616,-29.18,-108.28,142.49,-16.47,-3.11,6.27
9621,-34.68,-102.55,144.06,-16.98,-4.06,5.05
9626,-36.90,-99.30,144.25,-17.18,-4.63,4.35
9631,-40.30,-91.75,143.54,-17.50,-6.15,2.52
9637,-41.24,-83.91,141.82,-17.69,-7.30,1.14
9642,-39.23,-77.60,139.01,-17.70,-7.92,0.37
9647,-23.62,-53.16,124.65,-17.15,-9.12,-0.86
9651,-12.56,-39.67,115.42,-15.96,-9.39,-0.91
9656,-1.20,-26.62,105.59,-14.43,-9.53,-0.79
9661,28.75,5.34,77.71,-8.33,-9.53,0.48
9666,59.08,36.39,44.70,-0.57,-9.33,2.43
9671,69.42,46.93,31.46,2.25,-9.17,3.17
9677,88.74,70.08,2.46,6.80,-8.62,4.47
9682,105.65,95.57,-28.42,9.12,-7.23,5.32
9686,114.66,133.23,-60.62,7.55,-4.20,5.89
9691,115.61,165.21,-78.21,4.63,-1.45,6.20
9696,114.38,181.31,-84.70,3.06,-0.23,6.59
9701,111.81,198.95,-90.71,1.30,1.04,7.27
9706,101.88,240.59,-101.12,-2.45,3.94,10.50
9711,89.94,268.12,-104.64,-4.45,5.90,15.43
9717,86.07,269.27,-102.70,-4.63,6.21,16.84
9721,82.20,267.45,-100.39,-4.64,6.34,17.70
9726,75.51,253.98,-92.58,-4.56,6.45,18.93
9731,34.66,97.64,-25.53,-1.99,4.45,17.32
9736,33.21,92.97,-23.86,-1.91,4.39,17.27
9741,32.21,89.76,-22.71,-1.86,4.34,17.24
9746,31.39,87.13,-21.78,-1.81,4.31,17.21
9751,30.59,84.58,-20.87,-1.77,4.27,17.18
9756,29.62,81.47,-19.76,-1.71,4.23,17.15
9761,27.86,75.85,-17.77,-1.62,4.15,17.09
9766,25.62,68.73,-15.24,-1.49,4.06,17.03
9771,24.45,64.99,-13.91,-1.43,4.01,16.99
9776,23.22,61.09,-12.53,-1.36,3.95,16.95
9781,18.98,47.96,-8.12,-1.04,3.67,16.63
9786,2.58,5.76,3.63,0.44,2.28,14.71
9791,-3.47,-4.07,4.72,0.82,1.98,14.26
9796,-6.45,-6.93,4.53,0.93,1.84,14.05
9801,-12.85,-10.05,3.05,1.03,1.56,13.64
9806,-16.49,-11.12,2.03,1.06,1.39,13.39
9811,-31.65,-11.17,-1.65,1.01,-0.27,10.99
9817,-36.30,-10.52,-2.42,1.03,-1.28,9.53
9821,-36.89,-10.41,-2.52,1.04,-1.47,9.27
9827,-37.54,-10.34,-2.62,1.08,-1.69,8.95
9831,-37.63,-10.29,-2.73,1.12,-1.80,8.81
9836,-37.24,-10.00,-3.05,1.17,-1.90,8.67
9841,-36.86,-9.68,-3.25,1.21,-1.95,8.60
9846,-36.18,-9.13,-3.54,1.24,-2.00,8.56
9851,-17.66,3.60,-4.00,1.05,-2.22,8.75
9857,-12.19,5.42,-3.19,0.98,-2.32,8.83
9862,-8.97,5.82,-2.78,0.95,-2.34,8.87
9867,-6.29,6.03,-2.48,0.94,-2.36,8.90
9871,2.67,6.44,-1.67,0.91,-2.38,8.98
9876,6.85,6.50,-1.40,0.91,-2.38,9.00
9881,11.34,6.59,-1.12,0.90,-2.36,9.03
9886,28.13,7.68,0.36,0.91,-1.99,9.19
9891,31.47,8.07,0.91,0.91,-1.79,9.25
9897,32.75,8.24,1.16,0.91,-1.68,9.28
9901,34.50,8.49,1.50,0.92,-1.54,9.33
9906,42.11,10.01,3.33,0.92,-0.64,9.58
9911,43.78,10.79,3.83,0.90,-0.33,9.72
9916,44.05,11.02,3.94,0.89,-0.25,9.77
9921,43.80,11.99,4.11,0.75,-0.01,10.06
9926,43.58,12.15,4.13,0.72,0.03,10.12
9932,43.15,12.33,4.13,0.66,0.07,10.21
9936,40.45,12.54,3.98,0.49,0.16,10.47
9941,38.08,12.54,3.82,0.40,0.20,10.60
9946,34.32,12.19,3.51,0.30,0.22,10.70
9951,31.61,11.77,3.25,0.26,0.23,10.72
9957,23.14,10.00,2.35,0.18,0.22,10.71
9961,21.22,9.48,2.13,0.17,0.22,10.70
9966,19.03,8.85,1.88,0.17,0.22,10.68
9971,13.40,7.02,1.20,0.18,0.21,10.64
9976,11.47,6.31,0.95,0.19,0.21,10.63
9981,8.64,5.32,0.63,0.20,0.20,10.61
9986,5.31,4.13,0.27,0.23,0.17,10.57
9991,4.72,3.93,0.21,0.24,0.17,10.56
9996,2.58,3.29,0.03,0.26,0.13,10.51
10001,-1.28,2.32,-0.28,0.32,-0.08,10.33
10006,-2.99,2.02,-0.52,0.35,-0.31,10.21
10011,-3.68,1.96,-0.76,0.38,-0.50,10.12
10016,-3.93,1.99,-1.07,0.40,-0.70,10.04
10021,-3.82,2.04,-1.19,0.41,-0.76,10.01
10026,-3.78,2.05,-1.21,0.42,-0.78,10.01
10031,-3.45,2.15,-1.29,0.42,-0.82,9.99
10036,-3.09,2.24,-1.29,0.43,-0.82,9.98
10041,-2.18,2.44,-1.21,0.44,-0.80,9.97
10046,-1.82,2.52,-1.16,0.44,-0.77,9.97
10051,-1.25,2.66,-1.08,0.45,-0.72,9.97
10056,-0.92,2.74,-1.02,0.45,-0.69,9.97
10061,-0.15,2.94,-0.88,0.46,-0.59,9.97
10066,0.14,3.04,-0.82,0.46,-0.55,9.97
10071,0.30,3.16,-0.75,0.46,-0.52,9.97
10076,0.37,3.25,-0.71,0.46,-0.51,9.97
10081,0.42,3.35,-0.66,0.45,-0.52,9.97
10086,0.44,3.41,-0.64,0.45,-0.52,9.97
10091,0.50,3.55,-0.56,0.45,-0.53,9.97
10097,0.55,3.67,-0.49,0.44,-0.56,9.97
10101,0.61,3.79,-0.42,0.44,-0.58,9.97
10106,0.74,4.04,-0.29,0.43,-0.62,9.98
10111,0.89,4.30,-0.17,0.42,-0.64,10.00
10116,1.02,4.53,-0.08,0.41,-0.65,10.02
10121,1.25,4.92,0.05,0.39,-0.65,10.05
10126,1.51,5.42,0.22,0.36,-0.60,10.10
10131,1.61,5.64,0.30,0.35,-0.58,10.11
10136,1.68,5.85,0.37,0.35,-0.56,10.13
10142,1.70,6.04,0.44,0.35,-0.54,10.14
10148,1.70,6.17,0.48,0.35,-0.53,10.15
10151,1.62,6.59,0.57,0.35,-0.51,10.16
10157,1.52,6.74,0.59,0.35,-0.51,10.15
10161,1.48,6.80,0.59,0.35,-0.51,10.14
10166,1.40,6.87,0.58,0.35,-0.51,10.12
10171,1.31,6.90,0.55,0.35,-0.52,10.09
10176,1.26,6.89,0.52,0.34,-0.52,10.07
10182,1.17,6.85,0.42,0.33,-0.52,10.04
10186,1.09,6.73,0.25,0.32,-0.52,10.02
10191,1.04,6.64,0.13,0.32,-0.52,10.01
10197,1.01,6.56,0.03,0.32,-0.53,10.01
10201,0.99,6.48,-0.07,0.32,-0.55,10.00
10207,0.99,6.45,-0.10,0.32,-0.57,10.00
10211,1.00,6.42,-0.14,0.32,-0.60,10.00
10216,1.20,6.44,-0.15,0.32,-0.68,10.01
10221,1.36,6.47,-0.15,0.32,-0.70,10.02
10226,1.52,6.50,-0.13,0.32,-0.72,10.03
10231,1.94,6.57,-0.10,0.31,-0.75,10.05
10236,2.24,6.61,-0.08,0.32,-0.77,10.07
10241,2.72,6.67,-0.06,0.32,-0.79,10.09
10247,3.71,6.75,0.00,0.36,-0.81,10.11
10251,4.55,6.85,0.07,0.40,-0.82,10.11
10256,5.09,6.98,0.14,0.42,-0.81,10.10
10261,6.10,6.91,0.27,0.43,-0.79,10.09
10266,6.46,6.71,0.32,0.43,-0.78,10.09
10271,6.93,6.35,0.40,0.42,-0.76,10.08
10276,7.41,5.65,0.52,0.41,-0.72,10.08
10282,7.61,5.35,0.59,0.40,-0.70,10.08
10286,8.56,5.75,1.55,0.36,-0.61,10.08
10291,9.05,6.97,2.54,0.32,-0.56,10.08
10296,9.13,7.26,2.74,0.32,-0.55,10.08
10301,9.30,7.85,3.16,0.30,-0.54,10.07
10306,10.15,10.16,5.17,0.19,-0.45,10.09
10311,10.34,10.52,5.56,0.16,-0.42,10.09
10316,10.50,10.77,5.88,0.14,-0.39,10.08
10321,10.60,10.83,6.08,0.12,-0.37,10.06
10326,10.63,10.83,6.15,0.11,-0.37,10.03
10331,10.68,10.74,6.15,0.09,-0.37,9.97
10336,10.71,10.62,6.08,0.09,-0.40,9.94
10341,10.77,10.40,5.93,0.08,-0.44,9.89
10347,10.91,10.19,5.76,0.07,-0.48,9.87
10351,10.97,10.10,5.69,0.07,-0.49,9.86
10357,11.15,9.84,5.52,0.09,-0.51,9.85
10361,11.24,9.70,5.46,0.10,-0.51,9.85
10366,11.28,9.63,5.44,0.10,-0.51,9.85
10371,11.50,9.32,5.40,0.12,-0.50,9.88
10376,11.76,9.12,5.40,0.13,-0.48,9.94
10381,12.00,8.94,5.40,0.13,-0.44,9.98
10386,12.28,8.79,5.42,0.13,-0.40,10.03
10391,12.36,8.73,5.42,0.13,-0.38,10.05
10398,12.53,8.59,5.42,0.12,-0.35,10.08
10401,12.94,8.07,5.34,0.08,-0.23,10.16
10406,12.98,7.89,5.28,0.07,-0.21,10.17
10411,13.02,7.60,5.14,0.04,-0.18,10.19
10416,12.92,7.13,4.85,0.01,-0.15,10.21
10422,12.71,6.78,4.61,-0.01,-0.13,10.22
10426,12.54,6.57,4.45,-0.02,-0.11,10.22
10431,12.11,6.14,4.08,-0.04,-0.08,10.24
10436,11.80,5.89,3.83,-0.07,-0.06,10.26
10441,11.60,5.75,3.69,-0.08,-0.05,10.27
10446,11.51,5.69,3.62,-0.09,-0.04,10.28
10451,10.46,5.09,2.89,-0.18,-0.00,10.32
10456,10.24,4.98,2.76,-0.20,0.00,10.32
10461,9.75,4.76,2.49,-0.23,0.01,10.32
10466,8.82,4.36,2.04,-0.28,0.02,10.30
10471,6.61,3.47,1.24,-0.31,0.02,10.22
10476,6.43,3.40,1.18,-0.31,0.01,10.22
10481,5.38,3.06,0.82,-0.30,0.01,10.20
10486,4.59,2.82,0.54,-0.30,0.01,10.20
10491,4.19,2.70,0.40,-0.29,0.01,10.20
10497,3.40,2.50,0.12,-0.28,-0.00,10.20
10502,2.80,2.30,-0.10,-0.26,-0.02,10.20
10506,2.60,2.22,-0.18,-0.26,-0.02,10.20
10512,2.32,2.11,-0.28,-0.25,-0.04,10.21
10516,1.61,1.74,-0.54,-0.23,-0.08,10.21
10521,1.23,1.51,-0.66,-0.22,-0.11,10.22
10526,0.90,1.32,-0.76,-0.22,-0.13,10.22
10532,0.68,1.18,-0.81,-0.21,-0.14,10.22
10536,0.50,1.07,-0.85,-0.21,-0.15,10.22
10542,0.24,0.89,-0.89,-0.21,-0.16,10.21
10546,-0.07,0.63,-0.93,-0.20,-0.16,10.17
10551,-0.16,0.57,-0.94,-0.20,-0.16,10.15
10556,-0.27,0.50,-0.94,-0.20,-0.16,10.12
10561,-0.47,0.43,-0.96,-0.19,-0.16,10.08
10566,-0.79,0.39,-1.00,-0.18,-0.15,10.02
10571,-0.92,0.38,-1.02,-0.18,-0.16,10.02
10576,-0.97,0.38,-1.03,-0.17,-0.16,10.02
10581,-1.03,0.38,-1.04,-0.17,-0.16,10.03
10586,-1.14,0.38,-1.07,-0.17,-0.17,10.07
10591,-1.27,0.38,-1.09,-0.16,-0.18,10.11
10597,-1.31,0.38,-1.10,-0.16,-0.18,10.12
10602,-1.44,0.39,-1.12,-0.14,-0.18,10.14
10606,-1.51,0.39,-1.12,-0.13,-0.19,10.15
10611,-1.59,0.40,-1.12,-0.11,-0.19,10.15
10617,-1.68,0.43,-1.12,-0.08,-0.22,10.15
10621,-1.68,0.44,-1.10,-0.08,-0.24,10.14
10626,-1.67,0.46,-1.09,-0.08,-0.25,10.14
10631,-1.58,0.53,-1.07,-0.09,-0.26,10.13
10636,-1.52,0.59,-1.05,-0.09,-0.27,10.12
10641,-1.36,0.80,-1.02,-0.11,-0.27,10.10
10646,-1.31,0.86,-1.00,-0.11,-0.27,10.10
10651,-1.08,1.21,-0.92,-0.13,-0.27,10.08
10656,-1.05,1.26,-0.91,-0.14,-0.26,10.08
10662,-1.00,1.35,-0.89,-0.15,-0.26,10.07
10666,-0.95,1.46,-0.86,-0.15,-0.26,10.07
10671,-0.87,1.67,-0.79,-0.17,-0.25,10.07
10677,-0.84,1.78,-0.73,-0.18,-0.24,10.07
10681,-0.83,1.81,-0.70,-0.18,-0.23,10.07
10686,-0.85,1.84,-0.66,-0.18,-0.23,10.08
10691,-0.87,1.84,-0.62,-0.16,-0.23,10.09
10696,-0.88,1.84,-0.60,-0.15,-0.23,10.10
10701,-0.91,1.84,-0.60,-0.13,-0.23,10.11
10707,-0.95,1.83,-0.62,-0.11,-0.24,10.12
10712,-0.99,1.82,-0.64,-0.10,-0.24,10.12
10717,-1.11,1.81,-0.68,-0.08,-0.25,10.13
10721,-1.17,1.80,-0.70,-0.07,-0.25,10.13
10726,-1.26,1.78,-0.72,-0.05,-0.25,10.13
10731,-1.37,1.74,-0.74,-0.04,-0.26,10.13
10736,-1.47,1.70,-0.76,-0.03,-0.26,10.13
10741,-1.63,1.61,-0.81,-0.00,-0.27,10.13
10747,-1.66,1.59,-0.83,0.01,-0.28,10.13
10752,-1.69,1.56,-0.85,0.02,-0.29,10.13
10756,-1.70,1.56,-0.86,0.02,-0.29,10.13
10761,-1.70,1.56,-0.87,0.01,-0.30,10.13
10766,-1.71,1.57,-0.87,-0.00,-0.30,10.14
10771,-1.70,1.60,-0.88,-0.03,-0.31,10.14
10776,-1.69,1.61,-0.88,-0.05,-0.31,10.14
10782,-1.66,1.61,-0.87,-0.06,-0.31,10.14
10786,-1.59,1.61,-0.86,-0.07,-0.31,10.14
10791,-1.52,1.60,-0.84,-0.08,-0.31,10.14
10798,-1.46,1.58,-0.83,-0.08,-0.31,10.14
10802,-1.35,1.52,-0.81,-0.09,-0.30,10.15
10806,-1.29,1.48,-0.80,-0.09,-0.30,10.16
10811,-1.20,1.39,-0.78,-0.09,-0.28,10.18
10816,-1.09,1.23,-0.76,-0.10,-0.25,10.20
10821,-1.06,1.14,-0.75,-0.10,-0.25,10.21
10826,-1.05,1.06,-0.75,-0.10,-0.25,10.21
10832,-1.04,0.85,-0.75,-0.12,-0.26,10.22
10836,-1.04,0.76,-0.75,-0.12,-0.27,10.22
10842,-1.06,0.54,-0.77,-0.13,-0.27,10.22
10847,-1.09,0.38,-0.81,-0.14,-0.27,10.22
10851,-1.12,0.22,-0.92,-0.14,-0.27,10.20
10856,-1.14,0.16,-0.99,-0.14,-0.26,10.18
10861,-1.26,0.06,-1.17,-0.16,-0.26,10.16
10866,-1.31,0.04,-1.22,-0.17,-0.26,10.16
10871,-1.47,0.00,-1.36,-0.19,-0.25,10.16
10876,-1.55,-0.00,-1.42,-0.19,-0.25,10.17
10881,-1.61,-0.01,-1.47,-0.18,-0.25,10.17
10886,-1.69,-0.01,-1.53,-0.17,-0.25,10.17
10891,-1.78,-0.01,-1.59,-0.17,-0.25,10.17
10896,-2.01,-0.01,-1.73,-0.16,-0.25,10.18
10901,-2.38,-0.04,-1.95,-0.24,-0.25,10.19
10906,-2.54,-0.09,-2.08,-0.27,-0.26,10.18
10911,-2.62,-0.13,-2.15,-0.29,-0.26,10.17
10916,-2.66,-0.15,-2.19,-0.29,-0.25,10.16
10921,-2.68,-0.17,-2.22,-0.30,-0.25,10.15
10926,-2.72,-0.19,-2.27,-0.30,-0.24,10.14
10931,-2.72,-0.20,-2.29,-0.30,-0.24,10.12
10937,-2.72,-0.20,-2.30,-0.28,-0.24,10.10
10941,-2.72,-0.16,-2.30,-0.26,-0.26,10.07
10946,-2.72,-0.13,-2.29,-0.25,-0.27,10.06
10951,-2.71,-0.05,-2.29,-0.23,-0.29,10.05
10957,-2.66,0.18,-2.29,-0.20,-0.33,10.04
10961,-2.61,0.33,-2.28,-0.19,-0.36,10.04
10966,-2.54,0.52,-2.27,-0.17,-0.40,10.05
10971,-2.43,0.66,-2.23,-0.16,-0.43,10.06
10976,-2.37,0.71,-2.21,-0.15,-0.44,10.07
10982,-2.26,0.77,-2.14,-0.14,-0.45,10.08
10986,-2.03,0.85,-1.95,-0.11,-0.46,10.11
10991,-1.91,0.91,-1.83,-0.11,-0.47,10.13
10997,-1.83,0.97,-1.72,-0.11,-0.48,10.14
11001,-1.71,1.07,-1.58,-0.11,-0.49,10.15
11006,-1.47,1.40,-1.25,-0.13,-0.53,10.17
11011,-1.19,1.75,-0.99,-0.13,-0.55,10.17
11017,-0.94,1.98,-0.80,-0.12,-0.56,10.16
11021,-0.83,2.06,-0.71,-0.11,-0.55,10.16
11026,-0.40,2.30,-0.40,-0.09,-0.54,10.14
11031,-0.21,2.39,-0.27,-0.08,-0.54,10.14
11036,0.03,2.49,-0.10,-0.08,-0.53,10.13
11041,0.24,2.59,0.05,-0.07,-0.52,10.12
11046,0.70,2.84,0.37,-0.05,-0.50,10.10
11051,0.94,3.06,0.56,-0.04,-0.49,10.08
11056,1.20,3.44,0.80,-0.02,-0.48,10.06
11061,1.40,3.83,1.01,-0.01,-0.48,10.05
11066,1.51,4.11,1.14,-0.00,-0.48,10.04
11071,1.70,4.66,1.40,0.00,-0.48,10.03
11076,2.02,5.78,1.95,0.01,-0.48,10.02
11081,2.18,6.49,2.36,0.01,-0.48,10.02
11086,2.33,7.51,2.99,0.02,-0.47,10.00
11091,2.39,8.36,3.52,0.03,-0.45,9.99
11097,2.41,8.72,3.72,0.03,-0.44,9.98
11101,2.42,9.13,3.91,0.03,-0.42,9.98
11106,2.36,10.09,4.26,0.04,-0.39,9.96
11111,2.28,10.75,4.39,0.04,-0.36,9.95
11117,2.18,11.20,4.46,0.04,-0.35,9.95
11121,1.79,12.29,4.52,0.06,-0.33,9.94
11126,1.36,13.13,4.52,0.07,-0.32,9.94
11131,0.96,13.73,4.51,0.07,-0.32,9.94
11136,0.65,14.11,4.49,0.07,-0.32,9.94
11141,0.04,14.80,4.45,0.07,-0.32,9.95
11146,-0.39,15.23,4.43,0.06,-0.30,9.96
11151,-0.85,15.67,4.39,0.06,-0.28,9.97
11156,-1.42,16.27,4.29,0.04,-0.22,9.99
11161,-2.13,17.05,4.02,0.03,-0.13,10.02
11166,-2.42,17.43,3.79,0.03,-0.09,10.04
11171,-2.83,17.91,3.34,0.05,-0.06,10.06
11176,-4.03,18.75,2.18,0.11,-0.03,10.10
11181,-4.84,19.10,1.56,0.13,-0.01,10.12
11186,-6.06,19.50,0.73,0.17,0.01,10.14
11191,-7.66,20.11,-0.37,0.23,0.03,10.17
11197,-7.98,20.24,-0.58,0.24,0.03,10.18
11202,-8.82,20.60,-1.17,0.26,0.04,10.19
11206,-11.93,22.17,-3.65,0.34,0.00,10.21
11212,-16.00,24.21,-7.23,0.36,-0.07,10.22
11217,-18.67,25.44,-9.46,0.33,-0.12,10.21
11221,-19.40,25.75,-10.03,0.32,-0.13,10.21
11226,-21.04,26.51,-11.35,0.30,-0.16,10.19
11231,-25.04,28.72,-14.66,0.27,-0.21,10.12
11236,-28.13,31.14,-17.65,0.25,-0.24,10.05
11241,-29.45,32.38,-19.04,0.25,-0.25,10.02
11246,-31.43,34.46,-21.23,0.24,-0.27,9.99
11251,-33.63,37.42,-23.89,0.23,-0.30,9.96
11256,-35.61,40.34,-26.08,0.22,-0.32,9.94
11261,-38.37,44.57,-28.81,0.22,-0.34,9.92
11266,-42.54,50.71,-31.99,0.21,-0.34,9.91
11271,-45.18,54.32,-33.49,0.20,-0.34,9.91
11276,-48.57,59.19,-34.99,0.17,-0.32,9.91
11281,-55.01,69.34,-36.80,0.09,-0.30,9.91
11286,-56.28,72.03,-37.00,0.06,-0.30,9.91
11291,-57.82,75.79,-37.17,0.02,-0.30,9.91
11296,-61.81,90.21,-36.92,-0.14,-0.31,9.92
11301,-62.29,92.94,-36.61,-0.17,-0.32,9.92
11306,-63.01,96.88,-36.09,-0.21,-0.32,9.92
11311,-63.74,100.30,-35.66,-0.25,-0.33,9.92
11316,-64.40,103.06,-35.18,-0.28,-0.33,9.93
11321,-66.87,112.49,-33.01,-0.39,-0.36,9.93
11326,-76.53,142.91,-24.80,-0.78,-0.51,9.95
11331,-81.95,160.93,-20.40,-1.06,-0.66,9.97
11336,-83.95,171.52,-18.70,-1.29,-0.80,10.00
11341,-84.91,178.18,-17.88,-1.47,-0.92,10.02
11347,-85.65,187.51,-16.92,-1.76,-1.14,10.08
11351,-85.59,195.59,-16.40,-2.10,-1.43,10.14
11356,-84.97,202.92,-15.46,-2.52,-1.76,10.23
11361,-84.21,206.86,-14.07,-2.82,-1.98,10.31
11366,-83.37,209.46,-11.28,-3.17,-2.14,10.42
11371,-82.67,210.80,-6.05,-3.48,-2.23,10.56
11376,-82.55,210.86,-3.87,-3.57,-2.25,10.62
11382,-82.42,210.91,0.67,-3.70,-2.27,10.76
11386,-82.45,210.88,9.35,-3.88,-2.30,11.06
11391,-82.95,210.43,19.70,-3.96,-2.34,11.49
11397,-83.18,210.04,23.81,-3.95,-2.37,11.71
11402,-83.48,208.66,27.62,-3.87,-2.51,11.96
11406,-83.94,203.44,32.91,-3.57,-3.04,12.43
11412,-83.09,197.70,33.80,-3.27,-3.48,12.64
11417,-78.86,180.84,32.50,-2.47,-4.52,12.99
11421,-59.03,126.79,21.63,-0.13,-6.77,13.51
11426,-41.96,85.80,12.23,1.59,-7.82,13.69
11431,-37.04,73.87,9.63,2.08,-8.04,13.72
11436,-32.86,63.09,7.56,2.53,-8.16,13.73
11441,-25.81,44.40,4.54,3.29,-8.23,13.67
11447,-18.02,20.37,-0.48,4.28,-7.93,13.38
11451,-14.34,0.99,-11.24,5.10,-5.97,12.46
11457,-14.99,-1.38,-19.32,5.23,-4.84,12.07
11462,-15.60,-2.75,-27.04,5.30,-3.84,11.77
11467,-16.32,-3.79,-35.85,5.30,-2.60,11.52
11471,-16.83,-4.25,-41.57,5.27,-1.68,11.43
11476,-17.75,-5.05,-50.74,5.16,-0.17,11.36
11481,-18.13,-6.76,-54.39,5.01,0.81,11.44
11486,-18.02,-7.61,-53.63,4.95,1.05,11.51
11491,-13.56,-25.06,-27.46,3.90,2.28,12.42
11497,-12.31,-28.89,-22.97,3.69,2.32,12.50
11501,-6.66,-45.58,-4.02,2.80,1.67,12.52
11506,-5.10,-50.21,0.90,2.56,1.43,12.46
11511,1.05,-70.68,24.21,1.54,0.02,12.10
11516,3.97,-85.70,44.93,0.80,-1.54,11.69
11521,4.38,-89.43,50.56,0.59,-2.02,11.56
11526,4.61,-91.94,54.43,0.45,-2.36,11.47
11531,4.71,-93.23,56.44,0.38,-2.55,11.42
11536,4.70,-102.98,71.38,-0.27,-4.17,10.90
11541,4.13,-108.51,79.51,-0.79,-5.38,10.39
11546,2.86,-112.94,85.40,-1.33,-6.53,9.75
11551,1.47,-114.67,87.38,-1.65,-7.13,9.34
11556,-0.82,-115.47,87.87,-1.97,-7.60,8.91
11561,-2.68,-115.75,87.83,-2.13,-7.80,8.71
11566,-7.93,-115.77,86.57,-2.45,-8.05,8.37
11571,-16.74,-114.96,82.35,-2.77,-8.09,8.16
11576,-20.61,-114.52,79.97,-2.88,-8.05,8.14
11581,-25.44,-113.89,76.53,-2.98,-7.95,8.15
11586,-29.64,-113.13,72.98,-3.04,-7.78,8.22
11591,-31.24,-112.76,71.51,-3.05,-7.66,8.27
11597,-33.45,-112.10,69.21,-3.06,-7.46,8.35
11601,-37.73,-109.31,63.20,-3.05,-6.85,8.56
11606,-43.55,-103.08,52.43,-3.00,-5.97,8.85
11611,-44.60,-101.71,50.17,-2.98,-5.80,8.91
11617,-46.57,-98.98,45.76,-2.95,-5.49,9.02
11621,-47.22,-98.01,44.23,-2.93,-5.39,9.05
11626,-48.96,-95.16,39.79,-2.88,-5.10,9.16
11632,-51.25,-90.03,32.11,-2.74,-4.51,9.43
11636,-52.21,-87.24,27.80,-2.60,-4.11,9.62
11641,-52.49,-86.31,26.51,-2.55,-3.96,9.70
11646,-52.45,-84.45,23.79,-2.39,-3.63,9.86
11651,-52.32,-83.80,22.60,-2.33,-3.49,9.92
11656,-51.92,-82.29,19.64,-2.11,-3.09,10.07
11662,-50.51,-81.27,16.00,-1.79,-2.74,10.17
11666,-49.17,-81.15,14.02,-1.57,-2.65,10.19
11671,-48.37,-81.14,13.05,-1.45,-2.63,10.20
11677,-45.62,-81.24,10.14,-1.06,-2.62,10.19
11681,-45.29,-81.26,9.83,-1.02,-2.62,10.19
11686,-44.56,-81.31,9.16,-0.93,-2.63,10.18
11691,-40.52,-81.51,5.94,-0.50,-2.69,10.15
11697,-38.93,-81.59,4.64,-0.38,-2.72,10.15
11701,-37.06,-81.66,3.38,-0.24,-2.76,10.14
11706,-34.78,-81.76,1.54,-0.09,-2.82,10.14
11711,-32.10,-82.11,-1.75,0.06,-2.91,10.14
11716,-28.83,-82.75,-6.96,0.22,-3.05,10.14
11721,-23.15,-84.73,-20.60,0.42,-3.27,10.18
11726,-20.73,-85.84,-27.69,0.48,-3.35,10.23
11731,-18.80,-86.82,-33.87,0.52,-3.40,10.30
11736,-15.65,-88.68,-44.77,0.58,-3.45,10.46
11741,-13.26,-90.45,-53.69,0.61,-3.46,10.64
11746,-12.44,-91.21,-56.54,0.61,-3.46,10.68
11751,-11.53,-92.20,-59.67,0.60,-3.44,10.73
11756,-10.03,-93.85,-64.41,0.56,-3.40,10.77
11762,-8.72,-95.30,-68.20,0.52,-3.36,10.79
11766,-6.32,-98.01,-74.73,0.41,-3.28,10.83
11771,-4.17,-100.43,-80.24,0.29,-3.19,10.87
11777,-2.58,-102.27,-84.16,0.20,-3.13,10.92
11781,-1.09,-104.06,-87.71,0.10,-3.07,10.98
11786,1.07,-106.69,-92.56,-0.05,-3.00,11.07
11791,2.01,-107.87,-94.63,-0.11,-2.97,11.12
11796,3.75,-109.98,-97.59,-0.22,-2.94,11.20
11801,4.79,-111.22,-99.07,-0.27,-2.93,11.25
11806,6.62,-113.36,-101.11,-0.37,-2.93,11.31
11812,7.67,-114.54,-102.02,-0.42,-2.92,11.33
11816,10.80,-117.97,-104.25,-0.58,-2.93,11.39
11821,12.23,-119.50,-105.09,-0.66,-2.94,11.41
11826,14.92,-122.26,-106.31,-0.83,-2.98,11.44
11831,16.50,-123.79,-106.80,-0.96,-3.03,11.45
11836,18.60,-125.42,-107.03,-1.12,-3.13,11.46
11841,19.64,-126.04,-107.01,-1.18,-3.18,11.46
11847,20.92,-126.57,-106.92,-1.25,-3.22,11.45
11851,22.69,-127.11,-106.70,-1.32,-3.24,11.40
11856,23.98,-127.33,-106.45,-1.38,-3.24,11.33
11861,25.56,-127.49,-105.93,-1.45,-3.21,11.22
11866,28.47,-127.66,-104.66,-1.60,-3.12,11.01
11871,29.37,-127.68,-104.15,-1.64,-3.07,10.95
11876,30.93,-127.68,-103.11,-1.73,-2.98,10.84
11881,36.46,-126.89,-97.78,-2.02,-2.57,10.59
11886,36.90,-126.67,-97.12,-2.04,-2.53,10.58
11891,37.66,-126.14,-95.78,-2.07,-2.47,10.58
11896,38.78,-124.77,-92.15,-2.15,-2.33,10.62
11901,39.36,-123.52,-88.90,-2.22,-2.25,10.65
11906,39.73,-122.30,-85.57,-2.28,-2.17,10.68
11912,40.21,-118.69,-74.64,-2.54,-1.92,10.77
11916,40.32,-116.24,-66.60,-2.77,-1.76,10.80
11921,40.33,-114.59,-60.85,-2.96,-1.65,10.80
11926,40.27,-112.47,-53.21,-3.26,-1.51,10.75
11931,40.10,-110.64,-46.12,-3.66,-1.40,10.61
11936,39.85,-109.07,-40.52,-3.95,-1.33,10.47
11941,39.50,-107.71,-36.11,-4.17,-1.30,10.34
11947,38.72,-105.04,-28.25,-4.52,-1.28,10.10
11951,38.16,-103.17,-23.34,-4.70,-1.30,9.96
11957,37.39,-100.40,-16.35,-4.98,-1.34,9.78
11961,36.42,-96.63,-6.96,-5.42,-1.44,9.55
11966,35.87,-94.16,-0.97,-5.71,-1.51,9.42
11971,35.32,-91.03,6.60,-6.08,-1.60,9.26
11976,34.64,-85.40,19.55,-6.68,-1.72,9.00
11981,34.51,-82.88,25.01,-6.90,-1.75,8.90
11986,33.91,-72.08,45.10,-7.49,-1.79,8.46
11991,33.49,-68.46,50.48,-7.67,-1.81,8.26
11997,33.07,-65.93,54.12,-7.79,-1.84,8.10
12001,31.55,-58.86,63.13,-8.23,-1.98,7.55
12006,30.49,-54.77,67.76,-8.59,-2.15,7.12
12012,28.63,-45.71,76.07,-9.39,-2.71,6.09
12017,27.58,-38.91,80.76,-9.95,-3.24,5.32
12021,27.35,-37.12,81.68,-10.07,-3.38,5.13
12027,27.08,-34.20,83.05,-10.26,-3.62,4.82
12031,26.89,-22.83,86.12,-10.83,-4.54,3.76
12036,27.92,-13.16,86.73,-11.08,-5.10,3.15
12041,29.51,-4.57,86.76,-11.23,-5.45,2.82
12046,36.24,9.12,82.93,-10.56,-5.76,2.66
12051,44.74,20.72,76.74,-9.30,-5.97,2.77
12057,52.51,29.75,70.97,-8.03,-6.13,2.92
12062,78.78,57.91,49.35,-3.31,-6.60,3.51
12066,84.79,64.26,43.69,-2.16,-6.72,3.72
12071,94.33,72.59,34.67,-0.34,-6.75,4.11
12076,114.69,101.33,-1.89,4.70,-5.52,3.72
12081,113.57,103.46,-6.23,4.96,-5.22,3.28
12086,103.96,106.34,-12.58,4.84,-4.49,2.08
12091,82.23,110.05,-19.48,3.57,-3.13,0.21
12097,75.59,113.23,-22.01,2.88,-2.55,-0.06
12101,70.77,116.19,-24.01,2.28,-2.06,-0.17
12106,64.27,121.24,-27.24,1.32,-1.28,-0.04
12111,54.67,133.85,-33.81,-1.22,0.69,3.86
12116,57.73,137.82,-33.52,-4.51,2.97,17.45
12121,61.17,136.70,-32.39,-5.08,3.32,20.63
12126,69.53,131.95,-29.21,-5.63,3.75,25.35
12131,75.66,127.24,-26.80,-5.70,3.92,27.36
12136,84.06,115.85,-22.01,-5.46,4.08,28.59
12142,86.97,97.30,-15.69,-4.34,4.05,26.51
12147,86.96,93.83,-14.62,-4.11,4.03,26.00
12151,71.06,48.44,-2.89,-1.37,3.17,18.59
12157,58.58,34.86,-0.44,-0.69,2.46,16.47
12161,38.90,20.24,1.06,-0.16,1.32,14.38
12166,23.06,12.26,1.48,0.04,0.39,13.36
12171,13.75,8.65,1.45,0.08,-0.13,12.94
12176,2.91,4.82,1.19,0.07,-0.70,12.53
12181,-5.19,1.62,0.86,0.08,-1.10,12.15
12186,-9.97,-0.60,0.58,0.11,-1.31,11.85
12191,-15.67,-3.87,0.11,0.16,-1.57,11.37
12198,-18.56,-6.95,-0.40,0.30,-1.73,10.74
12201,-19.31,-8.57,-0.72,0.44,-1.81,10.32
12206,-19.19,-10.59,-1.34,0.70,-1.95,9.58
12211,-18.16,-11.48,-2.08,0.94,-2.08,8.96
12216,-17.54,-11.26,-2.29,0.99,-2.12,8.84
12221,-14.98,-9.67,-2.86,1.07,-2.21,8.67
12226,-11.92,-7.28,-3.24,1.09,-2.28,8.63
12232,-10.22,-5.77,-3.36,1.07,-2.31,8.63
12236,-8.72,-4.39,-3.42,1.06,-2.33,8.63
12241,-6.65,-2.35,-3.47,1.02,-2.34,8.63
12246,-5.10,-0.76,-3.47,0.98,-2.35,8.63
12252,1.18,4.23,-3.02,0.85,-2.35,8.58
12256,2.76,4.88,-2.80,0.83,-2.35,8.57
12262,5.01,5.72,-2.42,0.81,-2.34,8.55
12267,7.04,6.35,-2.12,0.81,-2.33,8.54
12271,11.87,7.44,-1.41,0.81,-2.30,8.53
12277,17.94,8.77,-0.57,0.82,-2.22,8.52
12281,22.15,9.73,-0.05,0.82,-2.06,8.54
12286,25.57,10.58,0.34,0.83,-1.88,8.56
12291,29.37,11.68,0.73,0.83,-1.61,8.63
12297,36.47,14.25,1.38,0.82,-0.90,9.06
12301,41.25,16.61,1.70,0.80,-0.35,9.73
12306,43.66,17.99,1.80,0.78,-0.09,10.19
12311,44.65,18.68,1.83,0.75,0.01,10.45
12317,45.41,19.62,1.82,0.65,0.09,10.90
12321,45.28,19.87,1.80,0.57,0.10,11.06
12326,44.97,19.90,1.79,0.52,0.09,11.11
12331,43.36,19.63,1.76,0.42,0.04,11.16
12336,42.52,19.44,1.76,0.39,0.02,11.17
12341,37.33,17.97,1.76,0.30,-0.04,11.13
12346,33.65,16.72,1.78,0.27,-0.05,11.09
12351,28.50,14.75,1.79,0.27,-0.05,11.01
12356,23.84,12.82,1.78,0.28,-0.04,10.96
12361,21.74,11.91,1.76,0.30,-0.03,10.93
12366,18.98,10.72,1.69,0.31,-0.02,10.89
12371,14.23,8.67,1.37,0.35,-0.01,10.81
12376,11.65,7.61,1.07,0.37,-0.01,10.73
12381,10.14,7.06,0.86,0.38,-0.02,10.67
12386,7.55,6.25,0.47,0.40,-0.03,10.54
12391,6.38,5.94,0.29,0.41,-0.06,10.47
12396,4.83,5.65,0.05,0.43,-0.10,10.36
12401,2.49,5.38,-0.30,0.44,-0.25,10.19
12406,1.69,5.34,-0.43,0.44,-0.34,10.12
12412,0.93,5.37,-0.59,0.44,-0.48,10.07
12417,0.61,5.45,-0.67,0.45,-0.56,10.05
12421,0.54,5.51,-0.69,0.45,-0.60,10.05
12426,0.53,5.67,-0.69,0.45,-0.64,10.05
12431,0.59,6.01,-0.64,0.46,-0.69,10.06
12436,0.80,6.53,-0.52,0.47,-0.71,10.08
12441,1.00,6.97,-0.39,0.47,-0.72,10.10
12446,1.66,8.30,0.04,0.48,-0.72,10.14
12451,1.82,8.58,0.14,0.47,-0.71,10.15
12456,1.96,8.83,0.22,0.47,-0.70,10.15
12461,2.21,9.26,0.37,0.46,-0.68,10.16
12466,2.47,9.64,0.51,0.45,-0.65,10.16
12471,2.72,10.02,0.67,0.43,-0.60,10.16
12476,2.94,10.36,0.83,0.42,-0.56,10.15
12481,3.12,10.64,1.00,0.41,-0.51,10.15
12486,3.24,10.84,1.13,0.39,-0.48,10.14
12491,3.43,11.27,1.47,0.36,-0.39,10.13
12496,3.40,11.55,1.82,0.32,-0.31,10.13
12501,3.30,11.61,1.91,0.31,-0.29,10.14
12506,3.21,11.62,1.94,0.31,-0.28,10.14
12512,2.75,11.52,1.96,0.30,-0.27,10.17
12516,2.37,11.36,1.94,0.29,-0.27,10.19
12521,1.93,11.06,1.85,0.28,-0.28,10.20
12526,1.46,10.60,1.65,0.26,-0.29,10.21
12531,0.96,10.06,1.39,0.24,-0.31,10.21
12536,0.01,8.97,0.75,0.23,-0.34,10.19
12541,-0.13,8.82,0.66,0.23,-0.35,10.18
12546,-0.36,8.57,0.49,0.24,-0.36,10.17
12551,-0.93,7.91,0.08,0.25,-0.38,10.13
12557,-1.27,7.49,-0.16,0.26,-0.39,10.10
12561,-1.65,7.00,-0.44,0.28,-0.41,10.07
12566,-1.95,6.57,-0.68,0.29,-0.43,10.03
12571,-2.50,5.68,-1.12,0.33,-0.46,9.97
12576,-2.67,5.37,-1.27,0.36,-0.48,9.95
12581,-2.87,4.98,-1.45,0.40,-0.52,9.92
12586,-3.04,4.52,-1.62,0.45,-0.57,9.90
12591,-3.15,3.96,-1.73,0.51,-0.65,9.91
12597,-3.17,3.77,-1.74,0.51,-0.68,9.91
12601,-3.17,3.38,-1.74,0.52,-0.72,9.93
12606,-3.16,3.32,-1.73,0.51,-0.72,9.93
12612,-3.08,3.22,-1.68,0.50,-0.71,9.95
12616,-2.81,3.11,-1.51,0.46,-0.69,9.97
12621,-2.54,3.09,-1.36,0.44,-0.67,10.00
12627,-2.36,3.09,-1.26,0.43,-0.66,10.02
12631,-2.01,3.10,-1.06,0.40,-0.64,9.98
12636,-1.74,3.12,-0.91,0.38,-0.61,9.50
12641,-1.36,3.14,-0.68,0.35,-0.56,8.47
12646,-0.90,3.15,-0.37,0.30,-0.47,6.37
12651,-0.75,3.16,-0.25,0.28,-0.45,6.07
12656,-0.62,3.16,-0.15,0.26,-0.45,6.21
12662,-0.49,3.14,-0.07,0.24,-0.49,7.13
12667,-0.45,3.13,-0.04,0.23,-0.51,7.64
12671,-0.39,3.08,-0.00,0.21,-0.54,8.46
12676,-0.34,3.00,0.03,0.21,-0.58,9.22
12681,-0.31,2.94,0.04,0.20,-0.59,9.56
12686,-0.29,2.88,0.06,0.20,-0.60,9.84
12691,-0.23,2.75,0.12,0.21,-0.62,10.19
12696,-0.08,2.61,0.26,0.22,-0.63,10.25
12702,0.20,2.53,0.43,0.23,-0.63,10.21
12707,0.50,2.50,0.56,0.24,-0.63,10.12
12711,0.71,2.50,0.62,0.24,-0.63,10.08
12716,1.01,2.52,0.71,0.23,-0.63,10.04
12722,1.27,2.54,0.78,0.22,-0.62,10.02
12726,1.49,2.57,0.85,0.20,-0.62,10.01
12731,1.62,2.59,0.90,0.18,-0.61,10.01
12736,1.92,2.65,1.03,0.14,-0.60,10.02
12741,2.22,2.70,1.17,0.08,-0.59,10.03
12746,2.31,2.72,1.22,0.07,-0.59,10.04
12751,2.79,2.75,1.45,-0.03,-0.57,10.06
12757,2.94,2.75,1.51,-0.06,-0.56,10.08
12762,3.22,2.73,1.62,-0.10,-0.53,10.14
12767,3.33,2.72,1.66,-0.12,-0.52,10.16
12771,3.38,2.71,1.67,-0.13,-0.51,10.17
12777,3.42,2.70,1.69,-0.13,-0.50,10.18
12781,3.48,2.68,1.70,-0.14,-0.50,10.19
12786,3.50,2.67,1.70,-0.14,-0.49,10.19
12791,3.54,2.51,1.68,-0.13,-0.47,10.17
12797,3.52,2.41,1.65,-0.13,-0.47,10.15
12801,3.41,2.27,1.58,-0.09,-0.45,10.12
12806,3.39,2.26,1.57,-0.08,-0.45,10.11
12811,3.36,2.25,1.55,-0.07,-0.45,10.11
12817,3.26,2.23,1.51,-0.04,-0.44,10.09
12821,3.15,2.22,1.46,-0.02,-0.43,10.08
12826,3.11,2.22,1.44,-0.02,-0.43,10.08
12831,3.07,2.22,1.43,-0.01,-0.43,10.07
12836,2.67,2.25,1.26,0.00,-0.41,10.06
12841,2.62,2.26,1.23,0.00,-0.41,10.06
12846,2.55,2.27,1.20,0.00,-0.41,10.07
12851,2.41,2.29,1.10,0.00,-0.40,10.07
12856,2.35,2.30,1.05,0.00,-0.40,10.08
12861,2.23,2.33,0.97,0.00,-0.40,10.09
12866,2.20,2.34,0.95,0.01,-0.40,10.10
12871,2.18,2.34,0.94,0.01,-0.41,10.10
12877,2.13,2.36,0.92,0.01,-0.41,10.11
12881,1.90,2.46,0.84,0.02,-0.43,10.13
12886,1.82,2.50,0.82,0.02,-0.43,10.13
12891,1.71,2.59,0.78,0.02,-0.44,10.13
12896,1.64,2.67,0.75,0.01,-0.44,10.13
12901,1.61,2.73,0.73,0.01,-0.44,10.13
12906,1.58,2.78,0.71,0.01,-0.44,10.13
12912,1.50,2.93,0.68,0.00,-0.44,10.12
12916,1.44,3.05,0.66,-0.00,-0.44,10.12
12921,1.41,3.10,0.65,-0.00,-0.44,10.13
12926,1.36,3.23,0.63,-0.01,-0.44,10.13
12931,1.33,3.37,0.62,-0.01,-0.44,10.14
12937,1.30,3.52,0.62,-0.02,-0.44,10.15
12941,1.30,3.64,0.60,-0.03,-0.44,10.16
12947,1.30,3.70,0.58,-0.04,-0.44,10.16
12951,1.30,3.73,0.56,-0.05,-0.44,10.16
12956,1.30,3.76,0.52,-0.06,-0.44,10.17
12961,1.30,3.78,0.45,-0.09,-0.44,10.17
12966,1.30,3.78,0.42,-0.09,-0.44,10.18
12971,1.28,3.77,0.33,-0.11,-0.45,10.20
12976,1.26,3.74,0.29,-0.12,-0.46,10.21
12981,1.24,3.69,0.25,-0.12,-0.47,10.22
12986,1.20,3.53,0.17,-0.12,-0.48,10.22
12991,1.19,3.29,0.09,-0.12,-0.48,10.22
12997,1.19,3.15,0.06,-0.12,-0.48,10.22
13001,1.23,2.87,0.01,-0.12,-0.48,10.20
13007,1.24,2.82,0.00,-0.12,-0.48,10.19
13012,1.29,2.74,-0.00,-0.12,-0.47,10.18
13017,1.34,2.65,-0.01,-0.11,-0.47,10.18
13021,1.37,2.61,-0.01,-0.11,-0.47,10.17
13026,1.41,2.48,-0.01,-0.09,-0.47,10.17
13031,1.40,2.37,-0.01,-0.07,-0.46,10.18
13036,1.37,2.26,-0.02,-0.05,-0.46,10.18
13041,1.30,2.16,-0.03,-0.03,-0.46,10.18
13047,1.21,2.06,-0.05,-0.01,-0.45,10.18
13051,1.17,2.01,-0.07,0.00,-0.45,10.19
13056,1.09,1.92,-0.09,0.01,-0.45,10.19
13062,0.92,1.72,-0.17,0.01,-0.45,10.21
13066,0.85,1.64,-0.21,0.01,-0.45,10.21
13071,0.81,1.58,-0.23,0.01,-0.45,10.21
13076,0.76,1.53,-0.28,0.01,-0.46,10.21
13081,0.74,1.50,-0.30,0.01,-0.46,10.21
13086,0.73,1.49,-0.33,0.01,-0.47,10.20
13091,0.73,1.50,-0.37,-0.01,-0.49,10.18
13097,0.73,1.52,-0.38,-0.02,-0.49,10.17
13101,0.74,1.55,-0.37,-0.03,-0.49,10.16
13106,0.77,1.60,-0.35,-0.04,-0.50,10.15
13111,0.81,1.64,-0.30,-0.05,-0.50,10.14
13116,0.84,1.67,-0.25,-0.06,-0.50,10.13
13121,0.90,1.68,-0.17,-0.06,-0.49,10.13
13126,0.93,1.68,-0.12,-0.07,-0.48,10.13
13131,0.97,1.66,-0.06,-0.07,-0.47,10.13
13137,1.00,1.62,0.01,-0.09,-0.45,10.14
13141,1.01,1.57,0.05,-0.12,-0.43,10.15
13146,1.01,1.54,0.07,-0.14,-0.41,10.16
13151,0.99,1.46,0.08,-0.19,-0.39,10.20
13156,0.96,1.40,0.08,-0.21,-0.39,10.21
13162,0.90,1.31,0.07,-0.23,-0.38,10.23
13167,0.79,1.18,0.05,-0.24,-0.37,10.25
13171,0.52,0.84,-0.01,-0.26,-0.35,10.27
13176,0.37,0.65,-0.05,-0.26,-0.34,10.28
13181,0.13,0.35,-0.13,-0.26,-0.32,10.27
13186,-0.14,0.04,-0.23,-0.25,-0.31,10.24
13191,-0.48,-0.28,-0.36,-0.24,-0.29,10.19
13197,-0.79,-0.50,-0.48,-0.21,-0.28,10.14
13201,-1.26,-0.73,-0.65,-0.16,-0.27,10.07
13206,-1.44,-0.79,-0.73,-0.13,-0.27,10.05
13211,-1.64,-0.86,-0.82,-0.09,-0.28,10.03
13216,-1.92,-0.97,-0.97,-0.04,-0.30,10.02
13221,-2.15,-1.09,-1.15,-0.02,-0.32,10.01
13226,-2.41,-1.21,-1.33,-0.00,-0.34,10.01
13231,-2.81,-1.37,-1.58,0.02,-0.37,10.01
13236,-3.10,-1.50,-1.74,0.04,-0.40,10.01
13241,-3.32,-1.59,-1.86,0.06,-0.42,10.01
13246,-3.68,-1.78,-2.02,0.10,-0.48,10.00
13251,-3.84,-1.93,-2.07,0.11,-0.55,9.99
13256,-3.87,-2.00,-2.05,0.10,-0.58,9.98
13262,-3.83,-2.03,-1.97,0.06,-0.61,9.97
13266,-3.71,-1.99,-1.83,0.01,-0.64,9.96
13271,-3.62,-1.87,-1.71,-0.02,-0.65,9.95
13276,-3.50,-1.60,-1.57,-0.04,-0.65,9.94
13281,-3.33,-0.78,-1.36,-0.05,-0.66,9.93
13286,-3.23,-0.08,-1.24,-0.06,-0.66,9.93
13291,-3.20,0.34,-1.20,-0.07,-0.66,9.93
13297,-3.19,0.91,-1.17,-0.08,-0.66,9.93
13301,-3.21,1.10,-1.17,-0.08,-0.66,9.93
13306,-3.28,1.49,-1.19,-0.07,-0.68,9.93
13311,-3.50,1.91,-1.30,-0.00,-0.75,9.93
13317,-3.73,2.19,-1.42,0.09,-0.83,9.93
13321,-3.87,2.29,-1.48,0.14,-0.87,9.94
13326,-4.05,2.54,-1.54,0.18,-0.90,9.96
13331,-4.10,2.63,-1.55,0.19,-0.90,9.96
13336,-4.32,3.18,-1.55,0.22,-0.88,9.99
13341,-4.57,4.08,-1.47,0.22,-0.80,10.02
13347,-4.90,5.23,-1.27,0.22,-0.66,10.04
13351,-5.04,5.73,-1.16,0.21,-0.59,10.04
13356,-5.35,6.51,-0.98,0.20,-0.48,10.05
13362,-5.77,7.34,-0.83,0.18,-0.37,10.05
13367,-6.36,8.22,-0.74,0.17,-0.25,10.06
13371,-7.09,9.24,-0.70,0.16,-0.16,10.08
13376,-7.43,9.72,-0.74,0.15,-0.12,10.10
13381,-8.64,11.01,-0.96,0.14,-0.07,10.14
13386,-8.99,11.32,-1.06,0.13,-0.06,10.15
13391,-10.13,12.05,-1.46,0.12,-0.05,10.18
13397,-11.67,12.69,-2.18,0.10,-0.06,10.19
13401,-12.73,12.97,-2.81,0.09,-0.07,10.20
13406,-13.71,13.16,-3.50,0.09,-0.09,10.20
13412,-14.64,13.28,-4.26,0.09,-0.13,10.20
13416,-15.56,13.34,-5.20,0.10,-0.19,10.20
13421,-16.35,13.39,-6.22,0.12,-0.26,10.18
13426,-17.28,13.47,-7.91,0.15,-0.34,10.15
13431,-18.22,13.63,-10.37,0.23,-0.36,10.07
13436,-18.43,13.71,-11.02,0.26,-0.34,10.05
13441,-18.89,13.94,-12.08,0.34,-0.29,10.01
13446,-19.16,14.23,-12.61,0.39,-0.26,10.00
13451,-19.26,14.35,-12.77,0.41,-0.26,10.00
13456,-19.92,15.28,-13.60,0.50,-0.23,9.95
13461,-22.89,21.41,-14.75,0.68,-0.19,9.52
13466,-24.48,25.33,-14.85,0.72,-0.16,9.26
13471,-24.69,25.88,-14.85,0.73,-0.15,9.22
13477,-25.45,28.03,-14.86,0.75,-0.12,9.13
13481,-27.46,36.10,-14.76,0.80,-0.04,9.03
13486,-27.77,37.79,-14.73,0.81,-0.03,9.04
13491,-28.26,40.74,-14.67,0.82,-0.06,9.06
13496,-29.38,48.16,-14.51,0.84,-0.23,9.11
13501,-29.63,50.00,-14.47,0.85,-0.29,9.12
13506,-30.04,52.92,-14.42,0.85,-0.37,9.15
13512,-32.48,66.82,-14.52,0.74,-0.61,9.29
13517,-33.68,72.27,-14.66,0.63,-0.65,9.37
13521,-34.99,77.54,-14.91,0.48,-0.66,9.49
13526,-36.23,82.36,-15.15,0.33,-0.65,9.60
13531,-38.69,91.83,-15.64,-0.02,-0.60,9.91
13537,-40.05,95.68,-15.80,-0.14,-0.57,10.02
13541,-42.21,101.06,-15.94,-0.27,-0.49,10.12
13546,-43.77,103.58,-15.95,-0.31,-0.44,10.13
13551,-48.68,108.57,-15.88,-0.39,-0.32,10.13
13556,-50.25,109.95,-15.86,-0.41,-0.29,10.12
13561,-59.75,116.69,-15.30,-0.56,-0.17,10.09
13566,-65.49,120.39,-14.66,-0.65,-0.14,10.07
13571,-72.73,125.20,-13.38,-0.76,-0.20,10.04
13576,-85.16,134.38,-9.67,-0.99,-0.57,9.99
13581,-88.87,137.75,-7.89,-1.07,-0.78,9.98
13586,-93.89,142.93,-4.93,-1.20,-1.11,10.01
13591,-98.40,147.98,-1.88,-1.36,-1.39,10.13
13596,-101.54,152.07,0.36,-1.49,-1.60,10.27
13601,-103.68,155.27,1.76,-1.60,-1.74,10.39
13607,-108.00,163.56,4.91,-1.88,-2.05,10.66
13612,-109.49,168.19,6.37,-2.04,-2.19,10.75
13617,-113.38,179.14,14.02,-2.64,-2.39,10.93
13621,-114.27,180.73,15.97,-2.76,-2.42,10.97
13626,-115.18,182.03,18.53,-2.90,-2.45,11.00
13631,-117.90,184.89,27.20,-3.28,-2.53,11.12
13636,-120.64,185.78,37.37,-3.56,-2.70,11.24
13641,-121.70,185.57,42.85,-3.63,-2.83,11.31
13646,-122.40,184.81,46.90,-3.67,-2.95,11.36
13651,-122.95,182.80,53.50,-3.68,-3.17,11.44
13657,-123.07,180.08,58.32,-3.64,-3.45,11.49
13662,-122.60,172.39,65.99,-3.41,-4.36,11.70
13667,-122.04,169.23,67.99,-3.22,-4.78,11.84
13671,-119.68,160.82,71.89,-2.47,-5.90,12.34
13677,-114.73,152.73,73.25,-1.21,-6.99,12.98
13681,-107.87,144.44,72.63,0.30,-7.80,13.53
13686,-100.54,137.78,70.48,1.56,-8.28,13.91
13691,-87.68,126.60,64.91,3.32,-8.68,14.26
13697,-63.41,105.98,45.86,5.75,-8.40,14.39
13701,-42.42,85.96,24.32,7.20,-7.53,14.21
13706,-30.47,73.62,10.16,7.80,-6.63,13.99
13711,-6.28,45.00,-20.35,8.46,-4.18,13.38
13716,12.39,17.39,-45.78,8.63,-1.58,12.79
13722,17.80,8.22,-53.35,8.60,-0.72,12.61
13727,30.46,-19.32,-71.09,8.15,1.76,12.16
13732,33.11,-30.32,-73.13,7.73,2.57,12.07
13736,34.02,-34.59,-71.80,7.49,2.78,12.04
13741,36.39,-44.94,-63.16,6.87,2.82,12.03
13746,37.11,-47.88,-58.78,6.67,2.75,12.03
13751,38.54,-53.77,-49.32,6.29,2.51,12.03
13756,43.94,-73.31,-23.55,5.21,1.57,11.87
13762,46.62,-83.70,-11.33,4.64,0.97,11.70
13766,49.50,-96.50,2.63,3.96,0.15,11.41
13771,51.78,-112.76,21.35,2.88,-1.45,10.96
13776,52.09,-116.41,25.74,2.60,-1.97,10.85
13781,52.26,-124.61,36.12,1.84,-3.47,10.57
13786,49.75,-133.42,48.63,0.56,-6.31,10.17
13791,47.09,-136.27,52.87,-0.04,-7.66,9.86
13796,45.23,-137.42,54.42,-0.31,-8.28,9.68
13801,39.53,-139.12,55.62,-0.87,-9.39,9.16
13806,33.79,-139.85,55.12,-1.23,-9.98,8.63
13811,29.40,-139.93,53.89,-1.49,-10.18,8.30
13816,22.14,-139.20,49.91,-1.88,-10.27,7.87
13821,15.62,-137.99,45.39,-2.26,-10.17,7.62
13827,9.39,-136.13,40.38,-2.71,-9.87,7.48
13832,3.42,-133.65,35.27,-3.13,-9.46,7.45
13836,-2.67,-129.97,29.83,-3.56,-8.92,7.52
13841,-7.21,-126.54,25.74,-3.79,-8.52,7.64
13846,-14.07,-120.29,19.48,-4.00,-7.94,7.96
13851,-19.32,-114.88,14.63,-4.07,-7.40,8.30
13856,-24.03,-109.50,10.27,-4.11,-6.82,8.70
13862,-27.33,-105.31,7.29,-4.11,-6.31,9.05
13866,-30.60,-100.44,4.41,-4.08,-5.57,9.52
13871,-33.73,-95.26,2.16,-4.03,-4.69,10.04
13876,-35.27,-92.59,1.40,-3.97,-4.15,10.33
13881,-37.32,-90.02,1.09,-3.84,-3.54,10.60
13886,-39.30,-88.67,1.36,-3.55,-3.19,10.72
13891,-39.98,-88.55,2.11,-3.31,-3.14,10.72
13897,-40.28,-88.68,2.91,-3.12,-3.15,10.70
13901,-40.73,-90.14,9.86,-2.37,-3.26,10.52
13906,-40.70,-91.60,15.53,-1.95,-3.37,10.37
13911,-40.64,-92.64,19.16,-1.70,-3.45,10.26
13916,-40.44,-94.58,25.02,-1.25,-3.65,10.05
13921,-40.23,-96.33,29.64,-0.83,-3.87,9.87
13926,-40.02,-97.75,32.43,-0.41,-4.12,9.71
13931,-39.91,-98.49,32.71,-0.06,-4.29,9.62
13936,-39.86,-98.87,31.98,0.17,-4.38,9.56
13941,-39.83,-99.34,30.00,0.43,-4.43,9.51
13946,-39.83,-99.85,25.78,0.69,-4.43,9.47
13951,-39.82,-100.52,19.53,0.91,-4.39,9.44
13956,-39.81,-100.89,16.09,0.99,-4.33,9.43
13962,-39.79,-101.40,11.38,1.07,-4.22,9.42
13966,-39.44,-103.89,-8.38,1.21,-3.51,9.42
13971,-39.27,-104.24,-10.87,1.21,-3.35,9.42
13976,-39.18,-104.39,-11.91,1.20,-3.29,9.42
13981,-38.87,-104.98,-15.43,1.18,-3.02,9.42
13986,-38.22,-105.58,-18.29,1.15,-2.73,9.43
13992,-37.34,-106.12,-20.60,1.12,-2.47,9.43
13996,-32.68,-108.50,-29.66,0.97,-1.59,9.45
14001,-27.96,-110.37,-36.49,0.80,-1.08,9.50
14006,-23.52,-111.82,-41.78,0.62,-0.78,9.58
14012,-21.62,-112.30,-43.70,0.54,-0.70,9.63
14017,-18.16,-113.02,-46.77,0.38,-0.61,9.73
14021,-14.53,-113.61,-49.48,0.21,-0.54,9.86
14026,-7.33,-114.00,-52.35,-0.06,-0.58,10.08
14031,-2.87,-114.11,-53.10,-0.22,-0.67,10.18
14037,-0.93,-114.12,-53.20,-0.28,-0.74,10.20
14041,2.94,-114.19,-53.56,-0.41,-0.90,10.25
14046,5.68,-114.31,-54.01,-0.53,-1.02,10.31
14052,11.57,-114.79,-55.24,-0.82,-1.37,10.46
14056,19.51,-115.85,-58.03,-1.28,-1.91,10.82
14061,25.68,-116.98,-61.24,-1.64,-2.36,11.21
14066,28.32,-117.55,-62.93,-1.78,-2.54,11.41
14071,31.19,-118.21,-65.00,-1.94,-2.74,11.64
14077,34.95,-119.04,-67.97,-2.14,-3.02,11.92
14081,37.88,-119.68,-70.57,-2.33,-3.26,12.12
14086,39.66,-119.97,-72.29,-2.53,-3.46,12.19
14091,42.18,-119.97,-74.04,-2.98,-3.75,12.10
14096,42.76,-119.80,-74.33,-3.12,-3.81,12.03
14101,43.79,-119.45,-74.63,-3.35,-3.88,11.89
14106,48.33,-116.61,-74.82,-4.00,-4.00,11.39
14111,50.01,-115.26,-74.85,-4.20,-4.01,11.20
14116,52.67,-113.08,-74.83,-4.47,-3.99,10.90
14121,61.79,-100.42,-71.30,-5.42,-3.62,9.58
14126,62.78,-97.73,-69.29,-5.54,-3.52,9.37
14131,64.26,-90.95,-64.11,-5.84,-3.33,8.96
14136,65.36,-81.92,-55.84,-6.13,-3.13,8.60
14141,65.66,-72.70,-46.76,-6.42,-2.96,8.34
14146,65.40,-62.99,-37.48,-6.81,-2.81,8.17
14151,62.68,-30.21,-7.45,-8.86,-2.47,8.08
14156,62.09,-27.75,-5.14,-9.14,-2.46,8.12
14161,59.72,-21.65,0.98,-10.15,-2.44,8.34
14166,59.04,-20.48,2.26,-10.40,-2.43,8.40
14171,57.32,-18.93,4.91,-10.96,-2.44,8.54
14177,54.52,-18.07,7.79,-11.60,-2.46,8.71
14181,51.85,-17.13,12.26,-11.91,-2.47,8.72
14186,51.40,-16.95,13.46,-11.95,-2.47,8.63
14191,49.63,-16.05,18.65,-12.08,-2.48,8.04
14197,47.89,-14.48,25.43,-12.24,-2.55,7.15
14201,45.03,-9.80,40.41,-12.46,-2.98,4.92
14206,43.48,-1.66,53.16,-12.04,-4.50,2.01
14212,43.05,4.04,58.64,-11.63,-5.60,0.43
14217,44.48,9.20,60.97,-11.19,-6.49,-0.54
14221,50.71,17.62,59.38,-10.31,-7.81,-1.63
14227,58.24,25.93,55.07,-9.42,-9.02,-2.79
14231,105.36,63.64,28.98,-6.71,-12.50,-5.53
14236,142.60,87.55,5.32,-5.46,-13.42,-5.73
14241,152.78,98.24,-5.50,-5.07,-13.24,-5.23
14246,159.74,105.81,-13.30,-4.77,-12.84,-4.57
14251,166.86,120.30,-27.48,-4.28,-11.58,-2.82
14256,166.69,136.93,-41.30,-3.93,-9.85,-0.85
14262,164.78,159.82,-57.27,-3.61,-7.04,1.83
14266,154.42,210.81,-85.56,-3.31,0.10,7.45
14271,150.75,229.38,-94.00,-3.31,2.82,9.24
14277,148.66,238.01,-96.84,-3.33,4.40,10.21
14281,145.94,240.85,-97.06,-3.34,5.22,10.76
14286,139.86,235.35,-92.98,-3.38,6.06,11.29
14291,135.90,229.07,-89.41,-3.40,6.25,11.52
14296,105.77,175.38,-62.51,-3.17,5.87,12.73
14301,83.30,136.06,-44.00,-2.82,5.29,13.39
14306,37.06,59.11,-10.62,-1.47,3.07,14.60
14311,19.36,31.67,-0.40,-0.79,2.00,14.91
14316,1.10,5.30,8.28,0.10,0.65,15.12
14321,-9.57,-9.47,11.11,0.67,-0.21,15.17
14326,-17.23,-19.66,10.46,1.16,-0.92,14.95
14331,-20.75,-21.83,7.06,1.40,-1.20,14.50
14336,-22.68,-21.34,1.88,1.51,-1.30,13.79
14341,-24.85,-19.87,-0.97,1.51,-1.29,13.19
14346,-28.04,-17.56,-3.80,1.48,-1.24,12.34
14351,-31.04,-15.84,-5.55,1.45,-1.23,11.62
14356,-35.18,-14.31,-6.83,1.41,-1.26,10.82
14362,-42.56,-12.21,-8.18,1.34,-1.40,9.57
14366,-46.47,-11.34,-8.65,1.32,-1.53,9.00
14371,-49.99,-9.73,-9.41,1.28,-1.70,8.58
14376,-50.92,-7.68,-10.23,1.22,-1.79,8.48
14381,-50.50,-6.23,-10.71,1.17,-1.81,8.53
14386,-49.92,-5.23,-11.00,1.12,-1.82,8.57
14391,-47.27,-2.63,-11.43,0.97,-1.83,8.73
14396,-41.66,-0.05,-10.77,0.77,-1.86,8.95
14401,-39.81,0.33,-10.03,0.73,-1.91,8.97
14406,-37.74,0.48,-9.17,0.70,-1.97,8.97
14411,-34.81,0.50,-8.03,0.69,-2.06,8.93
14417,-27.07,0.41,-5.47,0.68,-2.32,8.80
14421,-20.36,0.19,-3.99,0.69,-2.49,8.69
14427,-18.23,0.16,-3.70,0.69,-2.53,8.66
14432,-7.87,0.38,-2.65,0.70,-2.60,8.61
14436,-5.67,0.54,-2.53,0.70,-2.57,8.63
14441,3.87,1.44,-2.02,0.69,-2.33,8.80
14447,8.53,1.93,-1.78,0.67,-2.13,8.96
14451,14.47,2.59,-1.41,0.63,-1.78,9.25
14456,28.30,4.07,0.79,0.47,-0.43,10.36
14462,29.14,4.09,1.23,0.45,-0.27,10.49
14466,29.48,3.72,2.46,0.41,0.04,10.72
14471,29.04,3.33,2.98,0.40,0.13,10.78
14478,27.10,2.49,3.58,0.41,0.17,10.78
14482,25.01,1.84,3.75,0.44,0.12,10.73
14486,22.09,1.16,3.80,0.48,0.03,10.64
14491,19.62,0.75,3.61,0.53,-0.08,10.55
14496,17.86,0.53,3.38,0.55,-0.17,10.48
14502,11.54,0.17,2.27,0.64,-0.49,10.21
14506,7.78,0.33,1.46,0.67,-0.65,10.05
14512,7.31,0.41,1.34,0.68,-0.67,10.02
14516,6.40,0.65,1.08,0.68,-0.70,9.98
14521,5.53,1.03,0.83,0.69,-0.72,9.95
14526,4.95,1.44,0.64,0.69,-0.75,9.92
14531,4.56,2.01,0.44,0.69,-0.77,9.90
14536,4.17,3.51,0.11,0.67,-0.85,9.88
14541,4.13,3.96,0.05,0.65,-0.87,9.88
14546,4.10,4.68,-0.03,0.59,-0.90,9.88
14551,4.10,4.99,-0.04,0.57,-0.91,9.88
14556,4.16,5.37,-0.05,0.53,-0.92,9.88
14561,4.53,6.27,-0.02,0.46,-0.94,9.86
14566,4.78,6.61,0.01,0.44,-0.94,9.85
14571,5.44,7.26,0.09,0.44,-0.95,9.84
14577,5.61,7.40,0.12,0.44,-0.94,9.84
14581,7.19,8.84,0.51,0.45,-0.81,9.84
14586,7.37,9.01,0.57,0.44,-0.77,9.84
14591,8.13,9.61,0.79,0.43,-0.61,9.85
14596,8.14,9.65,0.81,0.44,-0.61,9.86
14601,8.14,9.68,0.81,0.44,-0.60,9.86
14606,8.14,9.70,0.82,0.44,-0.60,9.86
14612,8.15,9.74,0.83,0.44,-0.60,9.86
14617,8.16,9.82,0.85,0.45,-0.59,9.86
14621,8.16,9.84,0.85,0.45,-0.59,9.86
14626,8.17,9.94,0.90,0.45,-0.58,9.87
14631,8.18,10.33,1.09,0.47,-0.58,9.90
14636,8.18,10.66,1.28,0.47,-0.57,9.93
14641,8.10,11.00,1.51,0.45,-0.57,9.96
14646,7.97,11.34,1.77,0.45,-0.57,9.98
14651,7.25,12.07,2.51,0.47,-0.59,10.00
14656,6.59,12.34,2.79,0.46,-0.59,9.99
14661,6.25,12.30,2.81,0.41,-0.56,10.00
14666,6.15,12.23,2.80,0.39,-0.54,10.01
14671,6.02,12.06,2.75,0.37,-0.50,10.03
14677,5.97,11.96,2.72,0.36,-0.49,10.05
14681,5.94,11.90,2.70,0.35,-0.48,10.05
14686,5.89,11.81,2.66,0.35,-0.48,10.07
14691,5.86,11.74,2.63,0.34,-0.47,10.08
14697,5.59,11.11,2.32,0.32,-0.42,10.16
14701,4.99,9.68,1.50,0.31,-0.38,10.34
14706,4.65,9.25,1.25,0.32,-0.40,10.38
14712,4.43,9.01,1.12,0.32,-0.42,10.40
14716,4.08,8.66,0.92,0.32,-0.45,10.41
14722,3.77,8.41,0.76,0.32,-0.48,10.40
14726,3.44,8.14,0.60,0.32,-0.52,10.40
14731,3.11,7.87,0.43,0.32,-0.56,10.38
14736,2.66,7.48,0.21,0.33,-0.63,10.33
14741,2.51,7.28,0.15,0.32,-0.70,10.29
14746,2.51,7.27,0.16,0.32,-0.71,10.29
14751,2.54,7.25,0.22,0.31,-0.73,10.28
14756,2.60,7.25,0.31,0.30,-0.73,10.28
14761,2.75,7.26,0.47,0.29,-0.73,10.28
14766,2.88,7.26,0.58,0.29,-0.72,10.28
14771,3.10,7.23,0.74,0.28,-0.72,10.29
14776,3.36,7.19,0.92,0.28,-0.72,10.29
14781,3.54,7.16,1.02,0.28,-0.72,10.29
14786,3.80,7.11,1.17,0.27,-0.73,10.30
14791,4.42,6.81,1.61,0.23,-0.73,10.26
14797,4.47,6.75,1.66,0.22,-0.73,10.25
14801,4.58,6.61,1.77,0.20,-0.73,10.22
14806,4.69,6.47,1.89,0.18,-0.73,10.20
14811,4.76,6.38,1.96,0.17,-0.73,10.18
14816,4.85,6.25,2.07,0.15,-0.73,10.17
14821,5.09,6.03,2.29,0.11,-0.73,10.17
14827,5.42,5.80,2.56,0.06,-0.72,10.19
14832,6.01,5.49,2.93,0.02,-0.69,10.24
14836,6.22,5.39,3.05,0.01,-0.68,10.25
14841,6.33,5.34,3.11,0.01,-0.67,10.26
14846,7.11,4.91,3.54,0.02,-0.62,10.30
14851,7.53,4.57,3.80,0.00,-0.58,10.31
14856,7.70,4.26,3.90,-0.04,-0.56,10.30
14861,7.73,4.12,3.92,-0.07,-0.56,10.30
14866,7.75,3.89,3.92,-0.11,-0.54,10.29
14872,7.74,3.74,3.90,-0.13,-0.53,10.28
14877,7.69,3.51,3.84,-0.16,-0.51,10.26
14881,7.56,3.16,3.69,-0.15,-0.48,10.24
14886,7.04,2.54,3.22,-0.07,-0.42,10.20
14891,6.81,2.36,3.04,-0.05,-0.41,10.18
14896,6.73,2.31,2.98,-0.05,-0.41,10.18
14901,6.52,2.18,2.84,-0.04,-0.40,10.18
14906,5.91,1.83,2.44,-0.03,-0.39,10.18
14911,5.57,1.66,2.22,-0.03,-0.39,10.19
14916,5.04,1.42,1.89,-0.04,-0.39,10.22
14921,4.71,1.27,1.69,-0.05,-0.39,10.24
14927,4.60,1.21,1.63,-0.05,-0.39,10.25
14932,4.35,1.08,1.48,-0.06,-0.40,10.26
14936,3.81,0.65,1.15,-0.10,-0.43,10.29
14941,3.54,0.39,0.97,-0.12,-0.44,10.30
14946,3.43,0.28,0.91,-0.13,-0.45,10.30
14951,3.02,0.01,0.70,-0.12,-0.44,10.28
14956,2.89,-0.05,0.64,-0.12,-0.44,10.26
14962,2.74,-0.09,0.58,-0.11,-0.43,10.25
14966,2.45,-0.14,0.48,-0.09,-0.41,10.22
14971,2.24,-0.18,0.40,-0.08,-0.40,10.21
14977,2.07,-0.23,0.32,-0.07,-0.39,10.20
14981,1.80,-0.32,0.20,-0.06,-0.38,10.19
14986,1.50,-0.54,0.06,-0.04,-0.36,10.18
14991,1.34,-0.71,-0.01,-0.04,-0.34,10.18
14997,0.70,-1.54,-0.23,-0.06,-0.30,10.19
15001,0.22,-1.99,-0.40,-0.09,-0.28,10.20
15006,-0.04,-2.18,-0.51,-0.10,-0.28,10.20
15011,-0.69,-2.52,-0.80,-0.10,-0.27,10.20
15016,-0.95,-2.64,-0.92,-0.09,-0.27,10.21
15021,-1.22,-2.75,-1.06,-0.08,-0.27,10.21
15026,-1.77,-2.97,-1.34,-0.06,-0.28,10.22
15031,-2.74,-3.34,-1.82,-0.03,-0.30,10.23
15036,-3.01,-3.45,-1.96,-0.02,-0.30,10.24
15041,-3.70,-3.71,-2.30,-0.01,-0.33,10.24
15046,-3.86,-3.78,-2.38,-0.00,-0.34,10.25
15051,-4.29,-3.97,-2.63,0.00,-0.36,10.25
15056,-5.23,-4.51,-3.27,0.00,-0.41,10.27
15061,-5.58,-4.79,-3.57,-0.01,-0.43,10.28
15066,-5.96,-5.10,-3.87,-0.02,-0.44,10.30
15071,-6.38,-5.47,-4.21,-0.05,-0.45,10.30
15077,-6.95,-6.00,-4.64,-0.09,-0.45,10.28
15081,-7.08,-6.13,-4.74,-0.10,-0.45,10.27
15086,-7.83,-6.91,-5.22,-0.14,-0.45,10.21
15091,-8.60,-7.78,-5.64,-0.15,-0.45,10.14
15096,-9.32,-8.61,-5.94,-0.13,-0.47,10.06
15101,-9.61,-8.94,-6.03,-0.10,-0.49,10.02
15106,-9.99,-9.39,-6.13,-0.05,-0.52,9.96
15111,-10.24,-9.70,-6.17,0.01,-0.56,9.90
15116,-10.57,-10.06,-6.14,0.16,-0.67,9.78
15121,-10.30,-9.27,-5.30,0.47,-0.91,9.58
15126,-9.67,-8.30,-4.83,0.52,-0.95,9.59
15132,-9.14,-7.49,-4.45,0.53,-0.96,9.63
15136,-8.39,-6.43,-3.98,0.53,-0.96,9.69
15142,-6.67,-4.16,-2.98,0.51,-0.95,9.81
15146,-4.63,-1.67,-1.90,0.41,-0.89,9.96
15151,-3.72,-0.56,-1.40,0.35,-0.84,10.01
15156,-2.84,0.51,-0.93,0.28,-0.78,10.05
15161,-2.41,1.06,-0.68,0.24,-0.75,10.07
15166,-1.84,1.82,-0.34,0.18,-0.69,10.10
15171,-1.36,2.59,0.00,0.10,-0.63,10.13
15177,-1.25,3.08,0.20,0.03,-0.57,10.17
15182,-1.30,3.15,0.22,-0.00,-0.56,10.19
15186,-1.43,3.15,0.21,-0.02,-0.55,10.19
15191,-1.65,3.11,0.18,-0.02,-0.55,10.18
15197,-1.86,3.05,0.14,-0.01,-0.55,10.17
15201,-2.40,2.95,0.06,0.01,-0.54,10.11
15206,-2.89,2.88,-0.01,0.03,-0.52,10.06
15211,-3.24,2.86,-0.05,0.05,-0.51,10.04
15216,-3.50,2.86,-0.09,0.06,-0.51,10.02
15221,-3.77,2.87,-0.12,0.06,-0.50,10.01
15226,-3.93,2.89,-0.15,0.06,-0.50,10.01
15231,-4.30,2.97,-0.20,0.07,-0.49,10.01
15236,-4.54,3.06,-0.23,0.06,-0.48,10.05
15241,-4.80,3.18,-0.25,0.06,-0.47,10.12
15246,-4.97,3.27,-0.26,0.06,-0.47,10.20
15251,-5.13,3.34,-0.26,0.07,-0.47,10.27
15256,-5.20,3.39,-0.26,0.07,-0.47,10.31
15261,-5.39,3.42,-0.26,0.08,-0.49,10.40
15266,-5.79,3.33,-0.31,0.06,-0.52,10.49
15271,-6.40,3.07,-0.47,0.02,-0.52,10.53
15277,-6.88,2.77,-0.66,-0.01,-0.50,10.53
15282,-7.37,2.37,-0.92,-0.03,-0.48,10.52
15286,-7.61,2.11,-1.09,-0.04,-0.46,10.50
15292,-8.13,1.50,-1.47,-0.05,-0.43,10.47
15297,-8.68,0.79,-1.98,-0.05,-0.40,10.41
15301,-9.15,0.38,-2.29,-0.07,-0.39,10.38
15306,-9.48,0.13,-2.48,-0.09,-0.38,10.36
15311,-9.96,-0.21,-2.73,-0.11,-0.38,10.35
15316,-10.68,-0.67,-3.05,-0.12,-0.38,10.35
15321,-10.94,-0.81,-3.18,-0.11,-0.38,10.35
15327,-11.91,-1.26,-3.70,-0.07,-0.40,10.35
15331,-12.76,-1.60,-4.17,-0.03,-0.45,10.35
15336,-13.38,-1.83,-4.52,-0.00,-0.50,10.36
15341,-14.74,-2.38,-5.29,0.03,-0.63,10.35
15346,-15.61,-2.77,-5.80,0.05,-0.73,10.33
15351,-16.52,-3.21,-6.35,0.06,-0.83,10.31
15356,-18.43,-4.21,-7.56,0.07,-1.02,10.21
15362,-19.21,-4.62,-8.07,0.08,-1.08,10.16
15366,-20.35,-5.22,-8.88,0.11,-1.14,10.08
15371,-20.78,-5.44,-9.22,0.14,-1.16,10.05
15376,-21.21,-5.65,-9.62,0.19,-1.18,10.03
15381,-21.39,-5.73,-9.88,0.23,-1.18,10.02
15386,-21.50,-5.76,-10.15,0.28,-1.18,10.02
15392,-21.39,-5.58,-10.64,0.38,-1.16,10.03
15396,-21.21,-5.40,-10.83,0.41,-1.15,10.03
15401,-20.96,-5.18,-10.99,0.44,-1.13,10.03
15406,-20.64,-4.92,-11.18,0.47,-1.12,10.03
15411,-20.32,-4.67,-11.39,0.50,-1.11,10.03
15417,-19.69,-4.22,-11.80,0.54,-1.10,10.03
15421,-19.22,-3.86,-12.22,0.57,-1.12,10.02
15427,-18.99,-3.66,-12.48,0.59,-1.14,10.01
15431,-18.65,-3.17,-13.01,0.62,-1.19,9.99
15436,-18.45,-2.56,-13.47,0.65,-1.25,9.97
15441,-18.34,-1.80,-13.81,0.67,-1.28,9.93
15446,-18.30,-1.28,-13.96,0.68,-1.29,9.92
15451,-18.30,0.54,-14.22,0.72,-1.32,9.86
15456,-18.54,3.47,-14.31,0.79,-1.36,9.78
15461,-18.96,6.68,-14.26,0.92,-1.39,9.62
15466,-19.06,7.50,-14.23,0.96,-1.40,9.57
15471,-19.31,10.07,-14.06,1.07,-1.43,9.40
15476,-19.39,12.75,-13.78,1.16,-1.49,9.26
15481,-19.32,14.50,-13.50,1.20,-1.53,9.17
15486,-18.76,20.53,-12.29,1.26,-1.69,8.98
15491,-18.09,24.21,-11.33,1.28,-1.77,8.91
15497,-17.71,26.10,-10.80,1.28,-1.80,8.89
15501,-16.60,30.49,-9.42,1.28,-1.83,8.88
15506,-13.39,39.33,-6.38,1.27,-1.81,8.97
15511,-11.95,42.45,-5.27,1.26,-1.77,9.04
15516,-7.28,51.62,-2.39,1.24,-1.62,9.26
15521,-5.25,55.45,-1.29,1.23,-1.52,9.35
15527,-4.23,57.64,-0.59,1.22,-1.44,9.39
15531,-2.85,60.82,0.48,1.18,-1.29,9.45
15537,-1.09,67.94,3.38,1.07,-0.89,9.51
15541,-0.83,70.10,4.49,1.02,-0.75,9.52
15546,-0.64,74.09,6.37,0.94,-0.57,9.52
15551,-0.81,80.58,8.99,0.83,-0.41,9.48
15556,-0.96,83.27,9.71,0.80,-0.38,9.47
15562,-1.38,86.38,10.45,0.76,-0.39,9.46
15567,-3.58,93.67,11.41,0.68,-0.35,9.47
15571,-5.56,97.68,11.62,0.63,-0.28,9.50
15577,-9.22,104.07,11.81,0.55,-0.14,9.56
15581,-14.68,112.13,11.55,0.44,0.06,9.68
15586,-17.36,115.38,11.26,0.38,0.13,9.76
15591,-18.79,117.01,10.99,0.34,0.15,9.82
15596,-24.22,121.70,9.71,0.21,0.21,10.10
15601,-32.54,124.71,7.79,0.07,0.43,10.49
15606,-38.93,126.96,6.79,-0.04,0.60,10.68
15611,-43.89,128.34,6.09,-0.11,0.74,10.82
15616,-50.22,130.45,5.75,-0.22,0.79,10.94
15621,-57.44,133.67,5.71,-0.41,0.73,11.03
15626,-70.64,141.59,6.04,-0.81,0.46,11.13
15631,-77.07,146.88,6.49,-1.03,0.24,11.16
15636,-81.88,151.70,6.88,-1.18,0.07,11.20
15642,-86.45,156.81,7.29,-1.31,-0.11,11.25
15647,-90.90,163.05,7.82,-1.47,-0.35,11.31
15651,-93.07,166.99,8.24,-1.58,-0.54,11.35
15656,-96.21,173.16,9.16,-1.75,-0.84,11.41
15661,-102.46,187.23,12.65,-2.18,-1.49,11.53
15666,-106.77,194.63,16.21,-2.47,-1.76,11.63
15671,-109.25,198.22,18.63,-2.64,-1.87,11.68
15677,-114.16,203.35,24.11,-3.03,-2.04,11.78
15681,-116.32,205.15,27.11,-3.22,-2.09,11.82
15687,-119.35,206.77,32.28,-3.51,-2.19,11.86
15691,-123.18,206.42,42.35,-3.93,-2.36,11.80
15696,-124.54,204.70,48.06,-4.07,-2.50,11.74
15701,-125.48,201.55,53.22,-4.13,-2.69,11.66
15706,-126.53,195.28,60.88,-4.14,-3.13,11.59
15711,-127.00,190.09,65.58,-4.08,-3.60,11.57
15716,-127.28,182.69,70.72,-3.93,-4.30,11.59
15721,-125.15,168.67,76.79,-3.19,-5.72,11.94
15726,-101.91,139.25,75.14,0.59,-7.50,13.39
15731,-98.03,136.51,73.29,1.02,-7.51,13.53
15736,-94.36,134.00,71.28,1.40,-7.48,13.63
15741,-92.41,132.65,70.15,1.59,-7.45,13.68
15747,-90.31,131.16,68.92,1.80,-7.41,13.72
15751,-81.64,124.50,63.72,2.65,-7.22,13.86
15757,-28.51,76.10,19.42,5.58,-4.87,13.79
15761,-9.16,54.51,0.24,6.09,-3.56,13.31
15766,9.09,29.18,-19.37,6.28,-2.06,12.59
15771,27.37,-2.15,-38.28,6.26,-0.45,11.71
15777,34.93,-27.78,-40.28,5.82,0.34,11.17
15781,35.03,-36.53,-32.01,5.46,0.36,11.09
15786,35.08,-38.96,-28.90,5.34,0.34,11.08
15791,36.23,-52.09,-14.24,4.70,0.09,11.12
15796,36.68,-55.75,-10.45,4.50,-0.00,11.13
15801,37.53,-61.44,-5.29,4.21,-0.14,11.14
15806,41.16,-77.51,5.38,3.41,-0.54,11.11
15811,43.55,-87.99,12.04,2.88,-0.85,11.06
15816,45.99,-99.30,19.13,2.28,-1.25,10.93
15821,48.07,-111.00,27.61,1.58,-1.85,10.74
15827,49.11,-121.28,37.32,0.83,-2.79,10.49
15831,49.10,-127.63,45.02,0.21,-3.79,10.27
15837,45.45,-136.25,60.66,-1.24,-6.74,9.64
15841,44.20,-137.09,62.93,-1.49,-7.30,9.49
15846,41.50,-138.10,66.02,-1.90,-8.24,9.21
15851,39.08,-138.31,67.38,-2.18,-8.90,8.98
15856,29.99,-137.58,68.30,-2.85,-10.42,8.19
15861,25.95,-136.93,67.80,-3.04,-10.78,7.94
15866,22.81,-136.09,66.48,-3.16,-11.01,7.75
15871,15.36,-133.27,61.43,-3.41,-11.30,7.44
15876,5.20,-128.08,53.37,-3.66,-11.41,7.25
15881,-1.61,-123.88,47.36,-3.78,-11.46,7.16
15886,-8.74,-118.73,40.59,-3.90,-11.40,7.16
15891,-12.04,-116.22,37.30,-3.93,-11.32,7.21
15896,-19.16,-110.61,29.86,-3.97,-11.11,7.34
15901,-31.62,-99.39,15.22,-3.99,-10.33,7.74
15906,-43.00,-87.82,-0.30,-3.92,-8.73,8.44
15911,-49.60,-80.11,-9.93,-3.84,-7.28,9.06
15916,-51.92,-77.03,-13.14,-3.79,-6.65,9.34
15921,-53.99,-74.07,-15.84,-3.73,-5.98,9.64
15927,-56.12,-70.32,-18.23,-3.61,-4.95,10.11
15931,-57.51,-67.35,-19.47,-3.46,-3.95,10.57
15937,-57.79,-66.07,-19.53,-3.35,-3.41,10.80
15941,-57.77,-64.48,-18.63,-3.11,-2.49,11.16
15946,-57.44,-64.08,-17.39,-2.95,-2.05,11.30
15951,-56.38,-64.13,-14.48,-2.74,-1.68,11.40
15956,-54.94,-64.68,-10.64,-2.52,-1.55,11.40
15962,-54.00,-65.22,-8.06,-2.40,-1.52,11.38
15966,-52.00,-66.64,-2.48,-2.13,-1.55,11.28
15971,-50.12,-68.25,3.00,-1.85,-1.68,11.15
15976,-48.07,-70.32,9.08,-1.52,-1.89,10.96
15981,-47.04,-71.52,12.19,-1.35,-2.05,10.85
15986,-45.57,-73.41,16.33,-1.08,-2.33,10.67
15992,-43.13,-77.56,21.62,-0.53,-3.08,10.24
15996,-42.61,-78.75,22.23,-0.36,-3.32,10.10
16001,-42.24,-79.97,22.39,-0.18,-3.55,9.96
16006,-42.01,-81.28,22.13,0.01,-3.77,9.82
16011,-41.94,-81.72,21.91,0.08,-3.84,9.78
16016,-41.82,-82.89,20.91,0.25,-4.00,9.67
16021,-41.86,-84.97,17.37,0.51,-4.13,9.54
16027,-41.96,-86.88,12.16,0.71,-4.12,9.47
16031,-41.99,-87.34,10.56,0.75,-4.08,9.45
16037,-42.06,-88.41,6.28,0.83,-3.90,9.40
16041,-42.02,-88.89,4.15,0.87,-3.76,9.37
16046,-41.92,-89.53,1.28,0.89,-3.54,9.32
16051,-41.10,-90.65,-3.55,0.90,-3.10,9.18
16056,-39.27,-92.19,-9.48,0.89,-2.67,8.99
16061,-38.07,-93.04,-12.39,0.87,-2.50,8.89
16066,-35.80,-94.63,-17.74,0.83,-2.26,8.74
16071,-34.27,-95.73,-21.20,0.81,-2.15,8.65
16076,-31.72,-97.49,-26.80,0.76,-2.01,8.53
16081,-26.65,-100.72,-37.64,0.68,-1.82,8.34
16086,-23.27,-102.48,-44.77,0.60,-1.73,8.24
16092,-19.49,-103.34,-51.45,0.49,-1.67,8.20
16096,-16.71,-103.45,-55.26,0.41,-1.66,8.22
16101,-12.84,-103.09,-59.29,0.31,-1.66,8.29
16106,-8.52,-102.46,-62.83,0.22,-1.70,8.42
16111,-6.39,-102.10,-64.51,0.17,-1.73,8.52
16116,0.70,-100.72,-69.29,-0.01,-1.91,9.04
16121,2.02,-100.43,-70.08,-0.07,-1.96,9.20
16126,2.78,-100.26,-70.51,-0.11,-2.00,9.30
16131,4.92,-99.80,-71.45,-0.21,-2.09,9.55
16137,10.23,-98.73,-72.73,-0.44,-2.29,10.06
16142,17.25,-97.46,-75.18,-0.65,-2.46,10.36
16146,20.02,-96.99,-76.58,-0.72,-2.52,10.43
16151,24.76,-96.21,-79.33,-0.84,-2.60,10.55
16156,27.57,-95.78,-81.56,-0.91,-2.64,10.60
16161,32.99,-95.01,-86.42,-1.06,-2.72,10.70
16166,42.73,-93.94,-96.25,-1.41,-2.84,11.07
16171,48.59,-93.42,-102.16,-1.71,-2.91,11.55
16176,50.30,-93.30,-103.61,-1.82,-2.92,11.76
16181,54.97,-92.87,-105.25,-2.12,-2.93,12.27
16186,58.61,-92.41,-105.89,-2.36,-2.91,12.64
16191,61.49,-92.01,-105.90,-2.54,-2.90,12.88
16196,71.20,-90.49,-105.56,-3.05,-2.86,13.41
16201,83.11,-88.52,-105.08,-3.64,-2.82,13.85
16206,91.34,-87.06,-104.69,-4.03,-2.79,14.00
16211,99.07,-85.37,-103.46,-4.51,-2.73,14.01
16216,103.62,-84.18,-101.78,-4.85,-2.65,13.96
16221,108.40,-82.44,-98.72,-5.35,-2.50,13.83
16226,113.65,-79.00,-90.49,-6.36,-2.09,13.33
16231,114.68,-77.46,-86.52,-6.83,-1.91,13.10
16237,115.59,-75.96,-82.23,-7.30,-1.72,12.83
16242,116.06,-74.65,-77.97,-7.73,-1.54,12.57
16246,115.93,-72.53,-71.00,-8.46,-1.27,12.21
16251,115.42,-69.15,-56.45,-9.78,-0.90,11.67
16256,113.36,-66.35,-40.80,-11.22,-0.53,11.37
16261,108.39,-64.33,-24.37,-12.94,-0.08,11.17
16266,99.35,-63.04,-8.34,-15.03,0.49,11.03
16271,93.27,-62.80,-0.37,-16.03,0.76,10.81
16277,82.83,-62.56,9.11,-17.22,1.02,10.04
16281,73.28,-62.40,16.85,-17.96,1.10,9.20
16286,28.89,-62.02,45.80,-19.55,0.56,4.83
16291,-6.68,-61.28,65.02,-19.89,-0.75,0.90
16296,-15.51,-60.95,69.38,-19.79,-1.22,-0.14
16301,-39.40,-58.68,80.27,-18.96,-2.78,-3.36
16306,-46.46,-56.80,83.24,-18.30,-3.40,-4.48
16311,-68.50,-44.45,91.76,-13.78,-5.66,-8.55
16316,-71.40,-40.07,92.68,-12.19,-6.08,-9.30
16321,-72.21,-25.93,92.05,-7.74,-6.85,-10.45
16326,-50.45,5.50,77.70,-1.00,-7.31,-10.42
16331,-35.09,17.98,68.27,0.25,-7.28,-9.71
16336,-23.34,26.40,61.09,0.82,-7.24,-9.03
16341,-1.34,43.00,47.52,1.30,-7.16,-7.65
16346,17.61,59.04,35.77,1.49,-7.07,-6.33
16351,38.09,78.88,22.54,1.56,-6.98,-4.46
16357,63.89,112.38,3.73,1.19,-6.87,-0.69
16361,85.91,161.70,-18.14,0.30,-6.75,6.37
16366,89.95,182.98,-26.01,-0.18,-6.74,10.52
16371,92.09,200.27,-31.21,-0.63,-6.71,14.31
16376,92.74,213.14,-34.75,-0.93,-6.41,17.14
16381,93.39,218.57,-36.35,-1.14,-5.98,18.97
16386,100.93,214.57,-36.53,-1.81,-2.91,22.72
16391,108.20,193.36,-33.69,-2.21,0.29,23.97
16396,110.78,180.00,-31.56,-2.31,1.49,24.05
16401,113.48,161.91,-28.62,-2.41,2.85,24.05
16406,115.32,146.99,-25.96,-2.44,3.75,23.90
16411,117.02,124.56,-21.52,-2.38,4.77,23.32
16416,111.74,32.82,-0.87,-1.18,7.07,16.68
16421,110.64,30.18,-0.19,-1.12,7.12,16.32
16426,109.02,26.61,0.73,-1.03,7.13,15.82
16431,105.56,20.62,2.22,-0.87,6.95,14.92
16436,103.02,17.54,2.92,-0.76,6.69,14.37
16441,96.00,12.24,3.87,-0.48,5.85,13.03
16446,84.96,8.91,4.39,-0.27,5.12,12.09
16451,59.39,5.15,4.79,0.04,3.75,10.78
16457,38.69,4.75,4.06,0.29,2.54,10.10
16461,12.27,4.85,2.19,0.60,1.00,9.52
16466,0.56,5.23,0.94,0.76,0.31,9.29
16471,-10.00,5.84,-0.60,0.93,-0.30,9.09
16476,-20.84,7.26,-3.01,1.08,-0.92,8.93
16481,-22.93,8.30,-4.02,1.10,-1.01,8.90
16486,-23.10,9.34,-4.63,1.09,-1.02,8.93
16492,-22.23,9.98,-4.96,1.06,-1.01,8.97
16497,-19.24,11.69,-5.82,0.97,-0.96,9.10
16501,-15.97,13.64,-6.59,0.87,-0.91,9.25
16506,-9.42,16.01,-7.50,0.63,-0.87,9.56
16511,-4.60,17.21,-7.92,0.43,-0.86,9.78
16517,-4.08,17.32,-7.96,0.41,-0.86,9.80
16521,-0.34,17.12,-7.89,0.22,-0.86,9.98
16527,0.89,16.82,-7.78,0.16,-0.86,10.03
16531,4.96,14.73,-7.02,-0.06,-0.87,10.19
16536,6.32,12.98,-6.24,-0.11,-0.88,10.24
16541,7.61,10.31,-4.89,-0.11,-0.87,10.25
16546,8.18,8.91,-4.12,-0.11,-0.85,10.26
16551,9.45,5.23,-2.05,-0.06,-0.79,10.24
16556,9.63,4.66,-1.72,-0.05,-0.78,10.24
16561,10.10,3.02,-0.76,-0.02,-0.73,10.21
16566,10.83,-0.31,1.33,0.08,-0.60,10.16
16571,10.96,-1.85,2.46,0.13,-0.53,10.11
16576,10.96,-2.22,2.80,0.15,-0.51,10.08
16581,10.97,-2.53,3.41,0.21,-0.49,9.96
16586,10.97,-2.51,3.49,0.22,-0.49,9.94
16592,10.97,-2.28,3.78,0.26,-0.50,9.85
16597,11.35,-1.23,4.21,0.35,-0.53,9.73
16601,12.39,1.25,4.95,0.47,-0.58,9.65
16606,12.58,1.70,5.07,0.49,-0.58,9.65
16611,13.61,4.37,5.70,0.56,-0.61,9.69
16616,14.36,6.49,6.14,0.59,-0.62,9.77
16621,14.94,8.58,6.48,0.61,-0.62,9.87
16626,15.43,11.69,6.75,0.60,-0.56,10.05
16631,15.41,12.91,6.76,0.58,-0.51,10.12
16636,15.21,14.12,6.72,0.55,-0.44,10.18
16642,14.81,15.27,6.64,0.50,-0.34,10.25
16646,14.21,16.22,6.52,0.44,-0.25,10.30
16652,13.69,16.66,6.40,0.40,-0.20,10.34
16656,11.89,17.05,5.97,0.27,-0.09,10.41
16661,9.77,16.84,5.39,0.15,-0.04,10.46
16666,7.55,15.63,4.62,0.06,-0.05,10.49
16671,6.27,14.61,4.08,0.04,-0.07,10.49
16676,4.77,13.06,3.28,0.02,-0.10,10.49
16681,4.21,12.37,2.94,0.02,-0.12,10.48
16686,3.33,11.01,2.31,0.04,-0.18,10.45
16691,2.92,10.34,2.02,0.06,-0.22,10.42
16696,2.48,9.67,1.72,0.08,-0.28,10.38
16702,1.85,8.85,1.38,0.11,-0.38,10.29
16706,1.54,8.54,1.27,0.13,-0.45,10.23
16711,1.43,8.37,1.22,0.14,-0.48,10.20
16716,1.36,8.13,1.18,0.13,-0.51,10.16
16721,1.37,7.84,1.14,0.10,-0.52,10.15
16726,1.45,7.47,1.11,0.06,-0.50,10.14
16731,1.74,6.46,0.96,-0.04,-0.35,10.15
16736,1.79,6.30,0.93,-0.05,-0.33,10.15
16742,1.92,5.85,0.81,-0.06,-0.27,10.16
16746,2.07,5.26,0.62,-0.06,-0.23,10.17
16751,2.12,4.96,0.52,-0.05,-0.24,10.19
16756,2.21,4.34,0.30,-0.01,-0.28,10.22
16761,2.25,3.66,0.10,0.04,-0.35,10.23
16766,2.25,3.31,0.01,0.08,-0.39,10.22
16771,2.24,3.13,-0.04,0.11,-0.41,10.22
16776,2.18,2.74,-0.11,0.17,-0.44,10.19
16781,2.07,2.46,-0.15,0.22,-0.45,10.17
16786,1.95,2.27,-0.15,0.24,-0.46,10.16
16791,1.83,2.13,-0.15,0.25,-0.46,10.14
16796,1.74,2.03,-0.15,0.26,-0.46,10.12
16801,1.59,1.88,-0.15,0.26,-0.48,10.10
16807,1.32,1.61,-0.14,0.27,-0.50,10.05
16811,1.17,1.47,-0.13,0.27,-0.51,10.04
16816,1.05,1.33,-0.13,0.26,-0.52,10.05
16821,0.85,0.98,-0.12,0.26,-0.54,10.09
16826,0.83,0.91,-0.12,0.26,-0.54,10.10
16831,0.82,0.84,-0.12,0.26,-0.55,10.11
16836,0.77,0.61,-0.12,0.26,-0.56,10.13
16842,0.71,0.32,-0.14,0.24,-0.58,10.18
16846,0.64,0.20,-0.17,0.20,-0.59,10.22
16851,0.59,0.14,-0.19,0.18,-0.60,10.24
16856,0.48,0.06,-0.23,0.13,-0.60,10.25
16862,0.27,-0.08,-0.31,0.04,-0.61,10.27
16866,0.16,-0.17,-0.34,-0.01,-0.61,10.27
16872,0.11,-0.23,-0.34,-0.03,-0.61,10.27
16877,0.08,-0.26,-0.33,-0.04,-0.60,10.27
16881,0.02,-0.37,-0.30,-0.08,-0.58,10.27
16886,0.00,-0.43,-0.27,-0.11,-0.54,10.28
16892,-0.00,-0.45,-0.26,-0.13,-0.52,10.28
16896,-0.01,-0.49,-0.24,-0.16,-0.47,10.29
16901,-0.03,-0.57,-0.25,-0.21,-0.39,10.34
16906,-0.07,-0.62,-0.29,-0.22,-0.35,10.37
16911,-0.13,-0.67,-0.33,-0.22,-0.32,10.39
16916,-0.18,-0.71,-0.36,-0.23,-0.31,10.40
16921,-0.42,-0.90,-0.50,-0.23,-0.27,10.43
16926,-0.70,-1.14,-0.65,-0.24,-0.25,10.45
16931,-1.15,-1.52,-0.89,-0.26,-0.23,10.45
16936,-1.57,-1.88,-1.13,-0.30,-0.20,10.44
16941,-2.74,-2.86,-1.87,-0.39,-0.14,10.40
16946,-3.08,-3.14,-2.10,-0.41,-0.12,10.39
16951,-3.58,-3.54,-2.45,-0.44,-0.08,10.36
16956,-5.24,-4.90,-3.75,-0.51,0.03,10.31
16961,-6.56,-6.03,-4.74,-0.54,0.11,10.27
16966,-6.73,-6.18,-4.88,-0.54,0.11,10.26
16971,-8.07,-7.32,-5.61,-0.51,0.11,10.22
16976,-8.39,-7.60,-5.74,-0.49,0.11,10.20
16981,-9.29,-8.36,-6.09,-0.42,0.07,10.13
16987,-10.67,-9.49,-6.43,-0.19,-0.13,9.95
16992,-11.77,-10.35,-6.55,0.13,-0.48,9.73
16997,-11.98,-10.50,-6.53,0.22,-0.60,9.68
17001,-12.18,-10.54,-6.33,0.40,-0.85,9.57
17006,-12.12,-10.38,-6.10,0.52,-1.02,9.50
17011,-11.58,-9.57,-5.18,0.72,-1.38,9.42
17016,-9.76,-7.78,-3.91,0.78,-1.53,9.42
17021,-7.23,-5.54,-2.71,0.70,-1.48,9.55
17026,-5.29,-3.82,-1.95,0.62,-1.37,9.69
17031,-4.46,-3.07,-1.64,0.57,-1.31,9.75
17036,-2.23,-0.93,-0.82,0.43,-1.05,9.96
17041,-1.36,-0.04,-0.52,0.36,-0.92,10.06
17046,-0.15,1.31,-0.08,0.26,-0.69,10.22
17051,0.71,2.73,0.29,0.11,-0.25,10.46
17057,0.58,2.67,0.26,0.11,-0.24,10.46
17061,0.05,2.30,0.11,0.12,-0.23,10.44
17066,-0.13,2.17,0.06,0.12,-0.24,10.42
17072,-0.33,2.03,0.01,0.13,-0.25,10.41
17076,-1.39,1.36,-0.23,0.17,-0.35,10.30
17081,-1.74,1.13,-0.31,0.18,-0.39,10.25
17086,-2.09,0.91,-0.39,0.20,-0.45,10.19
17092,-2.26,0.82,-0.43,0.21,-0.48,10.16
17096,-2.50,0.72,-0.46,0.22,-0.54,10.11
17101,-2.70,0.70,-0.46,0.24,-0.62,10.02
17106,-2.68,0.84,-0.38,0.25,-0.68,9.92
17111,-2.32,1.26,-0.21,0.25,-0.69,9.88
17116,-2.04,1.55,-0.10,0.24,-0.69,9.88
17121,-1.88,1.72,-0.05,0.24,-0.68,9.90
17126,-1.67,1.95,0.01,0.24,-0.68,9.92
17131,-1.39,2.24,0.07,0.24,-0.66,9.97
17137,-1.17,2.46,0.12,0.24,-0.65,10.02
17141,-0.95,2.65,0.16,0.23,-0.64,10.09
17146,-0.79,2.73,0.18,0.22,-0.64,10.14
17151,-0.70,2.74,0.19,0.21,-0.63,10.16
17157,-0.56,2.69,0.18,0.18,-0.63,10.18
17161,-0.52,2.65,0.18,0.17,-0.62,10.18
17166,-0.47,2.57,0.17,0.15,-0.62,10.18
17171,-0.39,2.32,0.14,0.10,-0.61,10.17
17176,-0.36,2.15,0.14,0.06,-0.60,10.16
17181,-0.35,1.96,0.13,0.04,-0.59,10.15
17186,-0.35,1.74,0.12,0.03,-0.59,10.13
17191,-0.36,1.57,0.11,0.03,-0.58,10.11
17196,-0.37,1.44,0.11,0.03,-0.58,10.10
17201,-0.50,1.08,0.09,0.08,-0.58,10.08
17207,-0.84,0.65,0.04,0.13,-0.58,10.07
17211,-0.95,0.56,0.03,0.13,-0.58,10.07
17216,-1.05,0.49,0.01,0.14,-0.58,10.07
17221,-1.18,0.42,-0.02,0.14,-0.58,10.08
17226,-1.32,0.36,-0.05,0.15,-0.58,10.09
17231,-1.48,0.31,-0.11,0.15,-0.58,10.10
17237,-1.55,0.31,-0.16,0.16,-0.58,10.12
17242,-1.56,0.31,-0.18,0.16,-0.58,10.12
17246,-1.60,0.33,-0.23,0.16,-0.58,10.13
17251,-1.64,0.40,-0.40,0.16,-0.60,10.17
17256,-1.66,0.43,-0.46,0.16,-0.61,10.18
17261,-1.69,0.48,-0.53,0.16,-0.63,10.20
17266,-1.85,0.66,-0.68,0.14,-0.65,10.23
17271,-1.90,0.71,-0.70,0.14,-0.66,10.24
17276,-1.94,0.76,-0.71,0.13,-0.66,10.24
17281,-1.98,0.84,-0.71,0.12,-0.67,10.22
17286,-2.00,0.89,-0.71,0.12,-0.67,10.21
17291,-2.01,0.95,-0.69,0.11,-0.67,10.19
17296,-1.99,1.06,-0.63,0.09,-0.67,10.15
17301,-1.97,1.15,-0.58,0.08,-0.67,10.14
17306,-1.94,1.28,-0.49,0.06,-0.67,10.12
17311,-1.89,1.45,-0.36,0.05,-0.67,10.11
17316,-1.82,1.61,-0.22,0.04,-0.67,10.10
17321,-1.77,1.70,-0.13,0.04,-0.67,10.10
17326,-1.69,1.84,-0.03,0.04,-0.68,10.09
17331,-1.56,2.06,0.11,0.04,-0.69,10.08
17336,-1.50,2.26,0.18,0.06,-0.68,10.07
17342,-1.49,2.31,0.19,0.07,-0.68,10.06
17346,-1.48,2.38,0.21,0.07,-0.68,10.06
17351,-1.48,2.46,0.21,0.08,-0.66,10.04
17356,-1.52,2.53,0.20,0.08,-0.62,10.01
17361,-1.91,2.65,0.01,0.02,-0.49,9.90
17366,-2.73,2.63,-0.30,-0.07,-0.41,9.86
17371,-3.17,2.56,-0.43,-0.10,-0.41,9.87
17376,-3.90,2.40,-0.64,-0.14,-0.42,9.93
17381,-4.36,2.27,-0.79,-0.15,-0.43,9.99
17386,-4.51,2.21,-0.86,-0.15,-0.43,10.01
17391,-4.97,2.05,-1.06,-0.15,-0.46,10.10
17396,-5.27,2.03,-1.21,-0.12,-0.48,10.16
17401,-5.47,2.06,-1.25,-0.10,-0.50,10.18
17407,-5.77,2.14,-1.28,-0.07,-0.53,10.21
17411,-5.98,2.16,-1.31,-0.04,-0.56,10.23
17416,-6.17,2.16,-1.32,-0.03,-0.59,10.25
17421,-6.58,2.16,-1.42,0.01,-0.67,10.29
17426,-6.85,2.17,-1.60,0.02,-0.75,10.32
17431,-6.96,2.19,-1.71,0.02,-0.80,10.33
17436,-7.08,2.27,-1.87,0.02,-0.85,10.34
17442,-7.13,2.30,-1.94,0.02,-0.87,10.34
17446,-7.24,2.36,-2.07,0.02,-0.91,10.34
17451,-7.59,2.49,-2.43,0.02,-0.97,10.32
17458,-8.00,2.56,-2.73,0.04,-0.98,10.26
17461,-8.37,2.58,-2.99,0.07,-0.98,10.19
17466,-8.65,2.59,-3.17,0.12,-0.97,10.12
17471,-8.85,2.59,-3.31,0.15,-0.95,10.08
17476,-9.02,2.59,-3.43,0.18,-0.94,10.04
17481,-9.64,2.59,-3.95,0.33,-0.86,9.92
17486,-9.90,2.59,-4.19,0.40,-0.81,9.89
17492,-10.02,2.60,-4.30,0.43,-0.78,9.88
17497,-10.21,2.62,-4.49,0.46,-0.73,9.87
17502,-10.34,2.67,-4.59,0.46,-0.69,9.87
17506,-10.42,2.72,-4.65,0.45,-0.68,9.88
17511,-10.53,2.83,-4.71,0.43,-0.67,9.89
17516,-10.63,2.99,-4.73,0.42,-0.67,9.91
17521,-10.74,3.25,-4.74,0.40,-0.67,9.94
17526,-11.06,3.84,-4.74,0.38,-0.67,9.99
17531,-11.50,4.41,-4.77,0.37,-0.68,10.02
17537,-11.65,4.56,-4.79,0.37,-0.68,10.03
17541,-11.97,4.89,-4.87,0.38,-0.69,10.04
17546,-12.84,5.54,-5.28,0.42,-0.72,10.06
17551,-13.41,5.92,-5.69,0.44,-0.73,10.07
17557,-13.79,6.15,-6.12,0.46,-0.74,10.07
17561,-14.33,6.46,-6.76,0.47,-0.75,10.07
17566,-14.73,6.69,-7.30,0.48,-0.75,10.07
17571,-15.66,7.26,-8.84,0.51,-0.75,10.07
17576,-17.17,8.47,-11.53,0.56,-0.67,10.07
17581,-18.30,9.43,-12.85,0.60,-0.58,10.06
17586,-18.91,9.98,-13.46,0.63,-0.51,10.04
17592,-20.34,11.16,-14.54,0.69,-0.40,9.99
17596,-21.10,11.75,-14.92,0.71,-0.36,9.96
17601,-23.53,13.77,-15.92,0.78,-0.26,9.85
17606,-26.56,16.57,-16.86,0.86,-0.20,9.68
17611,-28.98,19.62,-17.55,0.94,-0.21,9.54
17616,-30.54,22.24,-17.98,1.00,-0.28,9.46
17621,-32.05,26.69,-18.55,1.09,-0.45,9.36
17626,-32.24,27.42,-18.62,1.10,-0.49,9.35
17631,-32.86,30.41,-18.85,1.14,-0.62,9.30
17636,-33.85,42.51,-18.87,1.23,-1.03,9.13
17641,-34.02,47.31,-18.69,1.25,-1.11,9.08
17646,-33.98,52.17,-18.24,1.26,-1.16,9.03
17651,-33.53,61.45,-17.25,1.29,-1.09,8.94
17657,-33.36,63.76,-17.00,1.30,-1.06,8.92
17661,-32.85,68.91,-16.39,1.31,-1.00,8.89
17666,-31.17,77.66,-15.17,1.32,-0.90,8.83
17671,-30.21,82.51,-14.36,1.32,-0.90,8.83
17677,-29.58,85.87,-13.72,1.31,-0.92,8.88
17681,-28.97,95.20,-12.19,1.24,-0.93,9.07
17686,-29.30,101.55,-11.22,1.14,-0.92,9.28
17691,-29.45,103.19,-10.96,1.11,-0.92,9.34
17696,-34.66,131.41,-5.73,0.35,-0.86,10.41
17701,-35.31,133.38,-5.27,0.27,-0.87,10.49
17707,-36.54,136.48,-4.48,0.14,-0.90,10.60
17711,-41.53,143.08,-2.22,-0.24,-1.04,10.82
17716,-46.31,146.16,-0.93,-0.47,-1.14,10.91
17721,-51.43,148.79,0.36,-0.64,-1.21,10.92
17727,-68.41,154.54,4.14,-0.95,-1.31,10.87
17731,-73.82,156.94,5.59,-1.01,-1.35,10.84
17736,-85.10,162.94,9.07,-1.12,-1.43,10.76
17742,-90.16,167.81,11.21,-1.21,-1.51,10.72
17746,-91.23,169.27,11.73,-1.24,-1.53,10.72
17751,-92.88,171.71,12.57,-1.28,-1.56,10.71
17756,-101.04,188.57,17.73,-1.56,-1.68,10.82
17761,-103.94,195.47,20.17,-1.70,-1.71,10.90
17766,-108.07,204.27,24.01,-1.90,-1.73,11.04
17771,-110.70,209.64,26.67,-2.04,-1.75,11.14
17776,-118.96,223.16,36.42,-2.76,-1.86,11.44
17781,-121.94,227.82,40.64,-3.15,-1.97,11.54
17786,-123.06,229.87,42.52,-3.40,-2.06,11.59
17791,-124.68,230.21,45.20,-3.67,-2.18,11.62
17796,-129.55,228.28,52.66,-4.26,-2.60,11.64
17801,-130.82,227.21,55.04,-4.35,-2.73,11.64
17807,-134.58,221.59,62.12,-4.52,-3.04,11.62
17812,-136.41,216.47,67.44,-4.56,-3.29,11.61
17816,-137.40,210.77,73.72,-4.56,-3.60,11.61
17821,-137.73,193.70,91.89,-4.21,-4.63,11.79
17826,-132.79,182.00,101.25,-2.81,-5.40,12.94
17831,-128.85,176.98,102.72,-1.65,-5.69,13.99
17837,-123.75,172.65,101.96,-0.46,-5.90,15.09
17842,-66.19,129.16,56.94,4.51,-6.11,19.39
17846,-52.02,116.87,43.95,4.95,-5.88,19.56
17851,-37.75,103.68,30.80,5.31,-5.58,19.64
17857,3.29,55.91,-5.24,5.85,-4.01,18.89
17861,11.01,45.66,-11.48,5.91,-3.57,18.53
