time_stamp,gyro_x,gyro_y,gyro_z,accel_x,accel_y,accel_z,quat_x,quat_y,quat_z,quat_w
165980,-6.42,10.57,4.23,-1.15,-1.96,9.42
165985,-7.51,10.09,4.23,-1.29,-2.01,9.57
165990,-7.59,9.88,4.18,-1.32,-2.01,9.60
165995,-7.44,9.50,4.07,-1.35,-2.03,9.64
166000,-7.11,9.11,3.96,-1.37,-2.05,9.66
166006,-6.62,8.68,3.84,-1.38,-2.07,9.67
166010,-5.87,8.17,3.69,-1.39,-2.11,9.67
166015,-4.84,7.42,3.49,-1.38,-2.17,9.67
166021,-4.22,6.90,3.35,-1.38,-2.20,9.66
166025,-3.65,6.41,3.21,-1.38,-2.23,9.66
166030,-2.83,5.67,2.99,-1.37,-2.26,9.66
166035,-2.39,5.27,2.86,-1.37,-2.27,9.67
166040,-0.68,3.90,2.30,-1.35,-2.24,9.67
166045,-0.17,3.43,2.09,-1.35,-2.21,9.67
166051,0.11,3.17,1.98,-1.35,-2.19,9.67
166055,0.59,2.70,1.78,-1.34,-2.16,9.67
166060,1.13,2.20,1.57,-1.34,-2.11,9.66
166065,1.62,1.68,1.36,-1.34,-2.05,9.65
166070,1.82,1.20,1.19,-1.34,-2.00,9.63
166075,1.65,0.43,0.99,-1.34,-1.90,9.58
166080,0.97,0.04,0.96,-1.35,-1.86,9.54
166086,0.18,-0.15,0.96,-1.36,-1.83,9.51
166090,-1.39,-0.67,0.94,-1.37,-1.80,9.47
166095,-2.72,-1.20,0.93,-1.38,-1.79,9.46
166100,-3.59,-1.78,0.90,-1.38,-1.81,9.46
166105,-4.34,-2.44,0.82,-1.38,-1.84,9.46
166111,-4.94,-3.07,0.73,-1.37,-1.89,9.47
166115,-5.31,-3.46,0.65,-1.36,-1.93,9.48
166120,-5.90,-3.92,0.52,-1.33,-1.97,9.49
166125,-6.34,-4.14,0.44,-1.28,-1.99,9.49
166130,-6.69,-4.21,0.41,-1.24,-2.00,9.49
166135,-7.04,-4.25,0.41,-1.18,-2.01,9.47
166141,-7.53,-4.27,0.43,-1.11,-2.01,9.42
166145,-7.87,-4.27,0.45,-1.08,-2.01,9.38
166151,-8.37,-4.18,0.49,-1.06,-2.01,9.31
166155,-8.77,-4.03,0.55,-1.06,-2.00,9.26
166160,-9.16,-3.87,0.61,-1.07,-1.98,9.22
166165,-9.80,-3.58,0.72,-1.08,-1.97,9.19
166170,-10.95,-3.20,0.89,-1.08,-1.95,9.16
166175,-12.36,-2.80,1.04,-1.08,-1.95,9.14
166180,-14.77,-2.03,1.23,-1.07,-1.95,9.14
166186,-19.03,-0.28,1.46,-1.07,-1.95,9.19
166190,-21.11,0.91,1.53,-1.07,-1.95,9.22
166195,-23.72,2.66,1.59,-1.07,-1.95,9.27
166200,-26.90,5.42,1.61,-1.08,-1.95,9.35
166205,-27.05,5.52,1.61,-1.08,-1.95,9.35
166210,-27.39,5.80,1.58,-1.08,-1.95,9.36
166215,-27.59,6.18,1.44,-1.08,-1.95,9.37
166220,-27.28,6.27,1.25,-1.08,-1.96,9.38
166225,-26.66,6.21,1.01,-1.08,-1.96,9.38
166230,-20.80,5.56,-1.33,-1.12,-2.10,9.38
166235,-20.48,5.52,-1.43,-1.13,-2.12,9.38
166240,-18.98,5.31,-1.91,-1.15,-2.18,9.36
166245,-8.50,7.56,-2.99,-0.76,-2.58,8.95
166251,-8.39,8.90,-2.57,-0.60,-2.51,9.05
166255,-7.99,12.45,-1.43,-0.32,-2.35,9.37
166260,-7.64,14.25,-0.91,-0.24,-2.31,9.53
166265,-7.12,16.31,-0.44,-0.20,-2.27,9.66
166270,-7.00,16.75,-0.35,-0.20,-2.27,9.69
166275,-6.86,17.22,-0.27,-0.20,-2.27,9.71
166280,-6.60,18.03,-0.19,-0.20,-2.26,9.72
166285,-6.50,18.58,-0.15,-0.21,-2.27,9.73
166291,-6.53,19.19,-0.04,-0.22,-2.28,9.73
166295,-7.54,20.46,0.39,-0.35,-2.37,9.73
166301,-7.79,20.58,0.46,-0.37,-2.39,9.75
166305,-8.40,20.83,0.64,-0.44,-2.44,9.79
166310,-9.56,21.30,1.03,-0.59,-2.56,9.91
166315,-10.48,21.73,1.52,-0.76,-2.69,10.07
166320,-10.65,21.96,1.85,-0.85,-2.77,10.16
166325,-10.74,22.41,2.49,-0.98,-2.89,10.30
166330,-10.51,22.74,2.96,-1.08,-2.90,10.35
166336,-10.40,22.78,3.03,-1.09,-2.90,10.35
166340,-9.51,23.18,3.60,-1.09,-2.91,10.22
166345,-4.49,26.58,7.23,-0.58,-3.48,9.05
166351,-3.12,27.51,7.38,-0.47,-3.58,8.94
166355,-0.43,29.41,7.63,-0.30,-3.73,8.80
166360,9.04,37.72,8.74,0.13,-4.14,8.64
166365,14.38,42.04,10.26,0.38,-4.47,8.62
166370,24.75,49.33,20.98,0.92,-5.43,8.75
166375,29.45,51.28,28.27,1.15,-5.95,8.88
166380,34.20,52.60,37.68,1.38,-6.55,9.10
166385,40.11,54.04,49.78,1.62,-7.28,9.46
166390,52.71,58.13,71.12,1.94,-8.39,10.48
166396,64.21,62.60,83.27,2.06,-8.94,11.31
166401,111.57,93.12,99.42,2.13,-9.50,12.93
166405,160.85,130.11,103.66,2.12,-9.53,13.53
166410,183.12,148.16,104.72,2.11,-9.47,13.69
166415,216.89,177.28,106.00,2.09,-9.34,13.87
166420,301.74,259.29,108.32,2.04,-8.83,14.04
166426,349.78,311.77,110.08,1.97,-8.48,14.20
166431,395.71,369.35,113.04,1.43,-8.08,15.30
166435,416.83,398.68,114.79,0.87,-7.92,16.43
166440,445.58,443.04,117.92,-0.74,-7.99,19.84
166445,466.20,480.44,121.30,-3.33,-8.79,25.41
166450,466.84,492.51,119.11,-5.01,-9.88,28.95
166455,428.30,487.89,96.97,-7.05,-12.50,33.79
166460,353.41,458.89,57.91,-7.13,-14.54,34.85
166465,277.20,419.80,19.87,-6.17,-15.03,33.48
166470,219.94,386.18,-7.88,-4.94,-14.89,31.64
166475,145.73,338.08,-44.47,-3.10,-14.39,28.66
166480,103.73,307.58,-66.15,-1.99,-13.80,26.56
166485,71.85,282.69,-82.45,-0.98,-12.87,24.51
166490,42.30,257.46,-97.58,0.07,-11.46,22.24
166495,20.11,237.82,-109.11,0.86,-10.26,20.55
166501,-17.95,203.62,-129.26,2.13,-8.22,17.82
166505,-83.20,128.31,-165.85,4.60,-1.45,11.15
166510,-96.74,108.84,-173.13,5.09,1.08,9.60
166515,-102.10,97.71,-175.70,5.27,2.59,8.98
166520,-103.14,89.18,-175.60,5.28,3.67,8.95
166525,-103.31,77.91,-172.59,5.27,4.76,9.31
166530,-103.00,75.11,-171.59,5.27,4.83,9.44
166536,-100.03,44.71,-158.67,5.24,5.01,10.77
166540,-99.21,32.01,-153.77,5.25,4.94,11.15
166545,-98.30,16.62,-147.98,5.29,4.77,11.55
166552,-97.22,-4.47,-141.07,5.33,4.54,12.06
166555,-95.68,-36.61,-132.82,5.39,4.23,12.70
166560,-93.79,-57.66,-128.56,5.33,4.03,13.10
166565,-92.59,-64.56,-126.78,5.26,3.93,13.20
166570,-92.15,-66.55,-126.25,5.23,3.90,13.23
166575,-87.58,-83.34,-121.57,4.90,3.62,13.41
166580,-84.03,-96.07,-117.94,4.63,3.39,13.45
166585,-78.56,-115.55,-112.42,4.18,3.05,13.46
166590,-70.98,-142.57,-104.83,3.48,2.57,13.39
166595,-61.85,-175.13,-95.94,2.58,2.04,13.17
166600,-56.35,-194.86,-90.32,1.93,1.71,12.98
166605,-50.71,-215.79,-84.04,1.10,1.35,12.71
166610,-47.79,-231.89,-79.27,0.43,1.04,12.48
166615,-46.58,-241.35,-76.59,0.04,0.84,12.33
166620,-46.23,-254.31,-73.83,-0.40,0.52,12.16
166625,-46.55,-270.90,-71.54,-0.88,-0.03,11.99
166630,-46.67,-273.45,-71.34,-0.98,-0.14,11.97
166635,-47.94,-294.91,-70.42,-1.95,-1.57,11.78
166640,-48.43,-302.52,-70.84,-2.47,-2.32,11.70
166645,-48.89,-310.14,-72.18,-3.06,-3.17,11.59
166651,-49.20,-316.95,-75.94,-3.69,-4.03,11.45
166656,-48.89,-317.96,-77.31,-3.78,-4.08,11.46
166660,-48.25,-318.21,-78.29,-3.79,-3.96,11.51
166665,-46.85,-317.90,-79.25,-3.71,-3.54,11.60
166670,-44.59,-317.13,-79.94,-3.61,-2.97,11.78
166675,-42.53,-315.85,-80.21,-3.51,-2.50,12.00
166680,-38.54,-312.69,-80.29,-3.34,-1.71,12.57
166686,-35.35,-307.72,-79.30,-3.23,-1.23,13.60
166690,-34.16,-305.14,-77.57,-3.20,-1.07,14.19
166695,-32.92,-302.31,-75.28,-3.19,-0.94,14.83
166700,-30.52,-293.08,-65.32,-3.21,-0.76,16.99
166706,-29.16,-285.50,-54.61,-3.25,-0.69,18.71
166710,-28.54,-280.80,-46.60,-3.34,-0.68,19.71
166715,-27.94,-276.40,-37.45,-3.48,-0.70,20.71
166721,-27.27,-273.32,-27.96,-3.69,-0.73,21.65
166725,-26.67,-270.72,-19.70,-4.16,-0.80,22.36
166730,-26.03,-268.62,-11.26,-4.89,-0.92,23.07
166735,-25.64,-267.70,-6.22,-5.32,-0.98,23.53
166741,-24.47,-266.15,6.08,-6.61,-1.18,24.71
166745,-22.16,-264.68,25.16,-9.40,-1.60,26.52
166751,-19.02,-263.79,48.03,-13.31,-2.22,28.71
166756,-16.39,-263.04,65.19,-16.58,-2.88,30.01
166760,-14.84,-261.80,75.08,-18.68,-3.62,29.90
166765,-14.68,-261.54,75.90,-18.97,-3.74,29.80
166771,-14.42,-260.94,77.06,-19.58,-4.01,29.42
166776,-14.34,-260.59,77.93,-19.91,-4.21,28.91
166780,-14.47,-260.32,78.75,-20.19,-4.42,28.04
166786,-14.79,-260.13,79.22,-20.46,-4.59,27.06
166790,-15.76,-259.67,79.49,-21.25,-4.89,24.89
166795,-16.23,-259.42,79.42,-21.69,-5.01,23.97
166800,-18.29,-257.53,78.86,-23.10,-5.28,20.11
166806,-21.36,-253.18,77.13,-24.95,-5.53,14.17
166810,-25.72,-240.93,69.19,-27.52,-5.45,5.10
166815,-28.90,-225.69,57.16,-29.18,-4.98,-1.50
166820,-22.20,-211.67,43.30,-29.70,-3.84,-5.68
166826,-17.51,-206.51,38.39,-29.61,-3.29,-6.76
166830,3.32,-186.49,22.14,-28.80,-0.99,-9.48
166836,40.08,-157.12,1.64,-27.38,2.81,-11.51
166840,73.75,-125.92,-15.38,-25.74,6.15,-12.11
166845,109.19,-86.65,-31.74,-23.54,9.59,-12.08
166851,124.56,-61.27,-39.44,-21.99,11.29,-11.69
166855,128.36,-35.37,-42.39,-20.25,12.10,-10.84
166861,104.85,11.21,-33.04,-16.35,11.10,-8.23
166866,78.04,42.44,-22.72,-13.09,9.48,-5.90
166871,56.28,61.24,-14.87,-10.85,7.83,-4.29
166875,27.52,82.33,-4.62,-8.07,5.49,-2.31
166880,7.20,96.53,2.64,-6.03,3.85,-0.97
166886,-17.28,111.95,11.30,-3.44,1.83,0.49
166890,-43.58,127.00,20.74,-0.53,-0.41,1.93
166896,-102.22,155.50,46.19,6.50,-5.08,4.53
166901,-108.25,156.52,53.26,7.52,-5.35,4.51
166906,-104.57,155.71,62.52,7.32,-5.75,4.65
166910,-81.81,152.25,80.07,4.86,-6.79,6.27
166915,-27.24,149.87,98.67,-1.64,-10.79,12.13
166920,28.64,150.79,103.88,-7.29,-14.83,17.89
166925,35.51,151.05,103.37,-7.78,-15.16,18.43
166930,52.19,152.04,100.09,-8.73,-15.68,19.60
166936,73.73,152.78,91.31,-8.65,-15.12,20.88
166940,87.37,151.42,79.85,-7.34,-12.98,21.63
166945,94.71,148.78,71.71,-6.05,-10.86,22.13
166951,99.57,144.83,65.23,-4.68,-8.66,22.48
166956,103.31,138.98,58.95,-3.18,-6.06,22.59
166960,104.75,135.43,56.43,-2.51,-4.78,22.22
166965,105.25,131.44,53.87,-1.93,-3.57,21.48
166971,100.86,123.21,47.50,-1.18,-1.76,19.23
166975,95.37,119.06,44.29,-1.02,-1.25,17.92
166980,89.02,116.93,42.46,-1.00,-1.10,17.26
166986,78.57,114.53,40.34,-1.01,-1.10,16.49
166990,61.99,110.06,37.42,-1.08,-1.34,15.13
166995,44.29,104.50,33.65,-1.15,-1.65,13.52
167001,39.20,102.03,31.63,-1.13,-1.79,12.83
167006,33.97,98.46,28.25,-1.04,-2.00,11.87
167010,31.95,95.92,25.26,-0.93,-2.14,11.22
167015,30.02,90.67,16.45,-0.52,-2.43,9.92
167020,30.67,89.74,14.25,-0.41,-2.47,9.71
167025,32.25,88.81,10.96,-0.28,-2.52,9.51
167030,38.05,88.76,2.57,-0.63,-2.58,9.69
167035,38.44,88.82,1.90,-0.71,-2.59,9.73
167040,38.74,88.90,1.25,-0.79,-2.59,9.78
167045,39.08,89.03,-0.29,-0.99,-2.60,9.91
167050,38.45,88.65,-2.81,-1.28,-2.60,10.14
167055,36.72,87.66,-4.61,-1.51,-2.61,10.32
167060,34.93,86.42,-5.35,-1.60,-2.61,10.41
167065,30.59,83.16,-6.28,-1.75,-2.63,10.51
167070,27.12,80.14,-6.68,-1.83,-2.64,10.55
167075,21.92,74.73,-7.00,-1.92,-2.67,10.58
167080,14.00,64.51,-7.00,-2.00,-2.68,10.55
167085,5.60,49.48,-6.60,-1.99,-2.68,10.47
167090,5.09,48.23,-6.54,-1.99,-2.67,10.46
167095,3.58,43.57,-6.29,-1.95,-2.67,10.43
167101,2.25,38.60,-5.94,-1.91,-2.66,10.38
167105,1.60,35.63,-5.70,-1.88,-2.65,10.35
167110,1.03,30.54,-5.22,-1.82,-2.63,10.28
167115,0.68,21.35,-3.98,-1.69,-2.57,10.09
167120,0.71,19.69,-3.70,-1.65,-2.55,10.03
167125,0.76,16.98,-3.20,-1.59,-2.52,9.94
167130,0.77,13.90,-2.53,-1.51,-2.47,9.82
167135,0.77,11.59,-1.89,-1.43,-2.42,9.72
167140,0.65,8.33,-0.91,-1.34,-2.33,9.60
167145,0.61,7.59,-0.71,-1.33,-2.32,9.58
167151,0.55,6.47,-0.43,-1.33,-2.29,9.56
167155,0.46,4.87,-0.12,-1.34,-2.26,9.54
167160,0.46,4.12,-0.04,-1.37,-2.26,9.52
167165,0.47,3.88,-0.04,-1.40,-2.25,9.51
167170,0.51,3.67,-0.06,-1.43,-2.26,9.49
167175,0.65,3.42,-0.10,-1.48,-2.28,9.46
167180,0.83,3.24,-0.15,-1.53,-2.31,9.43
167185,1.13,3.00,-0.21,-1.60,-2.37,9.39
167190,1.32,2.78,-0.24,-1.64,-2.42,9.37
167195,1.41,2.61,-0.25,-1.66,-2.45,9.36
167200,1.50,2.32,-0.24,-1.67,-2.49,9.36
167205,1.54,2.07,-0.22,-1.68,-2.51,9.35
167210,1.55,1.61,-0.16,-1.68,-2.52,9.35
167215,1.53,0.94,-0.05,-1.68,-2.51,9.35
167220,1.45,-0.04,0.15,-1.68,-2.49,9.36
167225,1.39,-0.53,0.26,-1.67,-2.46,9.37
167230,1.26,-1.27,0.46,-1.65,-2.41,9.40
167235,1.15,-1.75,0.61,-1.64,-2.37,9.43
167240,0.99,-2.24,0.76,-1.60,-2.33,9.47
167245,0.86,-2.58,0.84,-1.57,-2.31,9.48
167251,0.68,-3.03,0.90,-1.53,-2.29,9.48
167255,0.56,-3.27,0.91,-1.51,-2.29,9.47
167260,0.30,-3.65,0.88,-1.48,-2.30,9.44
167265,0.04,-3.88,0.81,-1.46,-2.32,9.41
167270,-0.16,-3.95,0.71,-1.45,-2.34,9.40
167275,-0.43,-3.90,0.57,-1.44,-2.38,9.38
167280,-0.77,-3.58,0.38,-1.44,-2.42,9.36
167285,-1.00,-3.23,0.27,-1.45,-2.44,9.35
167290,-1.35,-2.58,0.15,-1.47,-2.45,9.34
167295,-1.67,-1.97,0.09,-1.50,-2.45,9.35
167300,-1.85,-1.62,0.06,-1.51,-2.45,9.36
167305,-2.12,-1.10,0.04,-1.55,-2.44,9.39
167310,-2.39,-0.56,0.03,-1.59,-2.44,9.43
167315,-2.50,-0.35,0.03,-1.61,-2.43,9.45
167320,-2.63,-0.06,0.05,-1.64,-2.43,9.48
167326,-2.76,0.09,0.08,-1.67,-2.43,9.49
167330,-2.83,0.11,0.10,-1.68,-2.42,9.49
167335,-2.96,0.06,0.13,-1.68,-2.41,9.47
167340,-3.21,-0.10,0.17,-1.69,-2.37,9.41
167345,-3.33,-0.18,0.18,-1.69,-2.36,9.38
167351,-3.52,-0.30,0.17,-1.68,-2.33,9.31
167355,-3.70,-0.44,0.13,-1.65,-2.31,9.24
167360,-3.77,-0.50,0.09,-1.64,-2.30,9.21
167365,-3.82,-0.57,0.04,-1.62,-2.30,9.19
167370,-3.85,-0.67,-0.06,-1.59,-2.29,9.19
167375,-3.85,-0.71,-0.13,-1.57,-2.29,9.20
167380,-3.82,-0.73,-0.24,-1.56,-2.29,9.22
167385,-3.72,-0.71,-0.60,-1.55,-2.30,9.27
167390,-3.67,-0.67,-0.78,-1.55,-2.30,9.29
167395,-3.62,-0.66,-0.92,-1.55,-2.30,9.30
167400,-3.50,-0.67,-1.12,-1.56,-2.31,9.31
167405,-3.40,-0.67,-1.20,-1.56,-2.32,9.31
167410,-3.33,-0.67,-1.23,-1.56,-2.32,9.32
167415,-3.24,-0.68,-1.26,-1.56,-2.32,9.32
167420,-3.08,-0.68,-1.30,-1.56,-2.33,9.32
167425,-2.14,-0.34,-1.33,-1.57,-2.33,9.37
167430,-1.98,-0.26,-1.33,-1.57,-2.33,9.38
167435,-1.48,0.01,-1.32,-1.57,-2.33,9.42
167440,-1.11,0.22,-1.31,-1.57,-2.33,9.44
167445,-0.82,0.36,-1.30,-1.57,-2.34,9.45
167450,-0.25,0.58,-1.29,-1.59,-2.35,9.43
167455,0.31,0.73,-1.33,-1.66,-2.38,9.39
167460,0.37,0.73,-1.36,-1.67,-2.38,9.38
167466,0.42,0.74,-1.40,-1.69,-2.38,9.38
167470,0.46,0.74,-1.49,-1.70,-2.38,9.37
167475,0.48,0.72,-1.66,-1.72,-2.38,9.37
167480,0.43,0.71,-1.98,-1.73,-2.38,9.37
167485,0.37,0.72,-2.11,-1.72,-2.38,9.37
167490,0.31,0.75,-2.14,-1.70,-2.38,9.39
167495,0.23,0.81,-2.16,-1.66,-2.38,9.41
167501,0.04,0.99,-2.15,-1.51,-2.41,9.47
167505,-0.38,1.89,-1.98,-1.01,-2.61,9.58
167510,-0.50,2.45,-1.90,-0.84,-2.69,9.61
167515,-0.59,3.16,-1.83,-0.69,-2.75,9.63
167520,-0.64,3.78,-1.78,-0.60,-2.78,9.63
167525,-0.74,4.93,-1.68,-0.48,-2.79,9.64
167530,-0.90,7.13,-1.48,-0.39,-2.70,9.62
167535,-1.05,9.20,-1.26,-0.37,-2.58,9.57
167540,-1.32,12.21,-0.89,-0.43,-2.38,9.45
167545,-1.55,14.71,-0.61,-0.53,-2.25,9.35
167551,-1.62,15.46,-0.53,-0.57,-2.22,9.31
167555,-1.78,16.78,-0.36,-0.67,-2.18,9.27
167560,-2.09,18.44,-0.07,-0.86,-2.14,9.28
167565,-2.40,19.09,0.24,-1.01,-2.14,9.37
167570,-2.78,19.04,0.68,-1.16,-2.15,9.58
167575,-3.31,18.27,1.35,-1.24,-2.15,9.80
167580,-3.77,17.30,2.00,-1.28,-2.16,9.94
167585,-4.40,16.17,2.92,-1.30,-2.17,10.06
167590,-6.68,13.56,6.26,-1.36,-2.32,10.15
167595,-7.87,12.62,8.13,-1.40,-2.46,10.12
167601,-8.48,12.22,9.11,-1.42,-2.56,10.08
167605,-9.56,11.60,10.98,-1.45,-2.78,9.94
167610,-10.32,11.22,12.53,-1.46,-2.99,9.80
167615,-10.94,11.02,13.92,-1.43,-3.24,9.63
167620,-11.70,10.50,16.18,-1.29,-3.71,9.33
167625,-12.11,9.28,18.28,-0.95,-4.28,9.01
167630,-12.33,7.85,19.89,-0.75,-4.53,8.91
167636,-12.38,5.24,22.99,-0.39,-4.87,8.83
167640,-11.08,4.96,28.91,0.02,-5.10,8.82
167645,-7.40,6.13,39.31,0.60,-5.41,8.83
167650,1.69,11.77,58.98,1.63,-6.26,8.94
167655,12.72,19.33,75.43,2.41,-7.28,9.11
167660,19.71,24.42,82.56,2.74,-7.90,9.28
167666,30.37,32.78,91.43,3.14,-8.81,9.71
167670,43.74,43.44,101.55,3.56,-9.98,10.40
167675,72.71,71.02,111.83,3.93,-11.71,11.83
167680,297.30,320.08,122.63,4.07,-15.60,17.59
167685,372.61,405.54,115.34,3.66,-15.64,18.61
167690,380.02,413.78,114.03,3.59,-15.61,18.72
167695,386.75,421.28,112.67,3.53,-15.59,18.82
167701,430.98,470.95,97.47,3.01,-15.37,19.55
167705,454.50,497.79,72.17,2.41,-15.03,20.26
167710,450.73,502.42,35.46,1.82,-14.65,20.86
167715,433.85,495.12,3.55,1.43,-14.34,21.19
167720,354.87,445.12,-53.01,0.96,-13.88,21.04
167725,275.17,392.10,-91.56,0.72,-13.45,20.25
167730,149.87,307.23,-134.29,0.54,-12.33,17.79
167735,44.05,230.77,-166.26,0.56,-10.15,14.33
167740,16.74,209.83,-173.86,0.64,-9.17,13.06
167745,-14.15,184.34,-183.35,0.81,-7.55,11.26
167750,-44.94,156.02,-195.35,1.24,-4.90,8.92
167755,-63.57,139.15,-198.01,1.79,-2.45,7.43
167760,-74.96,129.77,-185.15,2.46,-0.25,6.65
167766,-83.66,123.65,-153.97,3.32,1.99,6.63
167770,-85.99,122.19,-138.16,3.64,2.64,6.85
167775,-88.37,119.45,-116.01,4.15,3.60,7.36
167780,-90.04,115.35,-96.03,4.79,4.71,8.19
167785,-90.43,110.34,-88.94,5.32,5.60,8.95
167790,-89.78,98.94,-90.41,5.89,6.58,9.78
167795,-88.63,81.09,-91.34,6.35,7.34,10.37
167800,-87.99,71.64,-91.43,6.50,7.56,10.51
167805,-86.78,52.74,-90.90,6.69,7.79,10.61
167810,-85.79,35.29,-87.46,6.80,7.89,10.63
167816,-84.40,13.57,-81.25,6.87,7.90,10.64
167820,-81.60,-13.95,-72.36,6.88,7.74,10.61
167825,-76.70,-43.19,-61.28,6.80,7.32,10.64
167830,-73.97,-54.67,-56.47,6.72,7.02,10.73
167835,-67.53,-77.59,-46.29,6.47,6.26,11.01
167840,-61.16,-95.76,-37.44,6.16,5.45,11.37
167845,-53.66,-116.64,-27.44,5.74,4.46,11.81
167851,-38.42,-164.67,-6.95,4.62,2.27,12.65
167856,-34.86,-181.83,-0.77,4.16,1.59,12.79
167860,-33.93,-189.00,1.47,3.94,1.30,12.81
167865,-32.51,-211.04,7.79,3.11,0.34,12.76
167870,-32.62,-216.00,8.98,2.90,0.11,12.73
167875,-32.96,-221.37,10.09,2.67,-0.14,12.70
167880,-35.69,-241.70,12.96,1.64,-1.26,12.53
167885,-37.63,-251.86,13.74,1.09,-1.88,12.45
167891,-38.35,-254.80,13.70,0.93,-2.07,12.43
167895,-40.39,-263.53,12.66,0.43,-2.64,12.41
167900,-42.08,-272.08,10.92,-0.08,-3.21,12.42
167905,-44.39,-285.10,6.54,-0.86,-4.05,12.44
167910,-45.17,-290.52,3.82,-1.18,-4.35,12.46
167916,-46.72,-302.15,-3.87,-1.82,-4.77,12.47
167920,-47.22,-306.04,-7.10,-2.03,-4.86,12.41
167925,-48.15,-313.49,-14.64,-2.46,-4.93,12.17
167930,-48.69,-317.99,-20.84,-2.77,-4.90,11.78
167935,-48.88,-320.42,-25.79,-3.01,-4.81,11.37
167940,-48.93,-322.15,-31.03,-3.26,-4.66,10.82
167945,-48.73,-322.53,-35.37,-3.44,-4.47,10.26
167951,-48.58,-322.19,-36.79,-3.50,-4.39,10.05
167955,-48.33,-321.13,-38.33,-3.56,-4.29,9.78
167960,-47.80,-316.44,-40.09,-3.62,-4.13,9.47
167965,-47.64,-313.45,-40.26,-3.63,-4.06,9.54
167970,-47.62,-309.53,-40.09,-3.63,-4.02,10.19
167975,-47.84,-301.84,-39.27,-3.62,-3.88,12.08
167980,-48.68,-295.11,-38.18,-3.61,-3.60,14.17
167985,-49.74,-288.95,-36.95,-3.60,-3.25,15.96
167990,-54.07,-275.71,-33.06,-3.59,-2.25,19.26
167995,-56.51,-270.50,-31.04,-3.58,-1.82,20.35
168000,-61.78,-261.60,-26.53,-3.65,-1.10,21.80
168005,-68.81,-252.59,-20.02,-3.85,-0.36,23.04
168010,-81.25,-240.51,-6.18,-4.46,0.55,24.71
168015,-82.93,-239.13,-3.93,-4.59,0.66,24.90
168020,-97.01,-230.41,27.34,-7.73,1.87,25.89
168025,-94.50,-232.54,38.33,-10.14,2.32,25.09
168030,-92.51,-233.63,40.17,-10.71,2.43,24.82
168035,-90.20,-234.75,41.48,-11.16,2.51,24.56
168040,-88.50,-235.52,42.17,-11.43,2.56,24.39
168045,-83.03,-237.89,43.56,-12.12,2.70,23.87
168051,-55.36,-248.33,45.51,-14.06,3.22,21.57
168055,-33.93,-255.92,45.72,-15.00,3.47,19.91
168060,-15.25,-262.37,45.71,-15.62,3.59,18.51
168066,11.13,-271.39,45.61,-16.44,3.62,16.51
168070,36.44,-280.46,45.42,-17.21,3.36,14.54
168075,51.15,-284.96,45.29,-17.80,3.04,13.28
168080,70.20,-286.28,45.12,-19.52,2.10,11.25
168085,74.36,-283.75,44.96,-20.68,1.70,10.13
168090,77.90,-270.87,43.80,-23.04,1.23,8.03
168095,78.13,-263.30,42.72,-24.24,1.11,6.61
168101,78.20,-251.02,38.61,-25.98,1.04,3.55
168105,78.06,-243.15,35.44,-26.86,1.05,1.55
168110,77.16,-221.40,24.23,-28.57,1.32,-4.18
168116,76.29,-195.74,13.23,-29.43,1.85,-9.09
168120,75.37,-136.78,-0.15,-28.08,3.21,-14.07
168125,74.78,-118.50,-2.16,-27.28,3.54,-14.65
168130,73.11,-89.67,-4.35,-25.80,3.99,-15.09
168135,69.93,-55.61,-5.47,-23.89,4.36,-14.87
168140,44.69,48.39,-4.62,-17.78,4.62,-10.79
168145,24.88,96.37,-2.86,-14.64,4.46,-7.67
168151,-0.66,142.52,0.13,-11.31,3.86,-3.71
168155,-14.08,161.96,1.94,-9.62,3.41,-1.52
168160,-35.68,188.38,5.07,-6.84,2.48,2.13
168165,-48.65,203.21,7.22,-5.12,1.69,4.44
168170,-63.15,220.19,11.22,-2.61,0.19,8.27
168175,-67.43,227.40,15.34,-0.89,-1.32,11.71
168180,-66.37,235.03,25.83,1.69,-4.94,18.94
168185,-63.34,235.08,28.70,2.03,-5.70,20.44
168190,-52.58,234.00,34.05,2.44,-7.07,23.04
168195,-49.40,233.49,35.21,2.47,-7.33,23.54
168201,-20.10,226.08,44.41,1.95,-8.88,26.56
168205,-14.14,224.19,46.15,1.72,-9.06,26.96
168210,11.53,215.77,52.93,0.65,-9.53,28.15
168215,35.52,205.22,58.40,-0.67,-9.46,28.42
168220,55.28,191.42,61.64,-2.38,-8.27,27.36
168225,66.76,173.73,62.06,-3.91,-6.34,25.59
168230,67.07,165.30,61.03,-4.11,-5.49,24.55
168235,58.40,138.87,54.89,-3.07,-4.39,19.07
168240,49.64,123.71,50.99,-1.85,-4.05,16.32
168245,47.19,118.64,49.58,-1.53,-3.91,15.67
168250,39.29,98.01,42.21,-0.62,-3.07,13.85
168255,37.71,92.78,39.96,-0.58,-2.91,13.41
168260,35.07,81.75,34.41,-0.58,-2.66,12.54
168266,33.53,72.06,28.86,-0.69,-2.55,11.75
168270,33.26,68.37,26.70,-0.83,-2.56,11.44
168275,33.59,64.91,23.23,-1.06,-2.57,11.03
168280,34.36,63.59,20.28,-1.17,-2.53,10.78
168285,35.63,62.77,15.17,-1.28,-2.47,10.44
168290,36.20,63.47,10.21,-1.32,-2.51,10.24
168295,36.32,64.21,5.15,-1.34,-2.59,10.09
168301,35.96,64.72,1.35,-1.37,-2.71,10.00
168305,35.40,65.11,-1.81,-1.39,-2.82,9.94
168310,34.56,65.15,-5.04,-1.42,-2.93,9.90
168315,33.84,64.83,-6.43,-1.44,-2.99,9.89
168320,31.33,61.74,-7.47,-1.47,-3.08,9.92
168325,29.82,59.61,-7.40,-1.47,-3.10,9.92
168330,29.09,58.57,-7.36,-1.47,-3.10,9.92
168335,26.88,55.37,-7.19,-1.46,-3.10,9.93
168340,24.04,51.19,-6.87,-1.45,-3.08,9.92
168345,21.58,47.51,-6.53,-1.43,-3.03,9.91
168350,19.02,43.65,-6.12,-1.39,-2.95,9.89
168355,15.96,39.03,-5.51,-1.32,-2.83,9.86
168360,11.99,32.97,-4.48,-1.18,-2.63,9.82
168366,11.20,31.68,-4.25,-1.15,-2.59,9.81
168370,9.20,28.69,-3.51,-1.04,-2.47,9.80
168375,8.71,27.90,-3.32,-1.01,-2.44,9.79
168380,6.33,22.94,-2.66,-0.90,-2.32,9.75
168385,5.82,21.27,-2.68,-0.90,-2.30,9.72
168390,5.54,20.12,-2.74,-0.91,-2.29,9.69
168395,5.48,19.81,-2.76,-0.92,-2.29,9.68
168400,5.08,17.58,-2.93,-0.95,-2.31,9.63
168406,4.71,14.91,-3.14,-1.02,-2.36,9.57
168410,4.66,14.32,-3.18,-1.04,-2.39,9.56
168416,4.47,12.70,-3.29,-1.11,-2.44,9.54
168420,4.38,12.05,-3.33,-1.14,-2.46,9.54
168425,4.25,11.28,-3.37,-1.18,-2.49,9.53
168430,4.02,10.19,-3.39,-1.23,-2.51,9.54
168435,3.41,8.38,-3.40,-1.32,-2.52,9.56
168440,3.07,7.48,-3.36,-1.36,-2.52,9.57
168445,2.80,6.82,-3.27,-1.38,-2.52,9.59
168451,1.86,4.38,-2.82,-1.45,-2.51,9.62
168455,1.46,3.40,-2.52,-1.46,-2.50,9.62
168460,1.20,2.76,-2.29,-1.46,-2.50,9.60
168465,0.64,1.48,-1.70,-1.45,-2.50,9.57
168470,0.15,0.51,-1.15,-1.44,-2.48,9.57
168475,0.01,0.26,-0.99,-1.44,-2.48,9.57
168480,-0.15,-0.01,-0.81,-1.44,-2.47,9.57
168485,-0.42,-0.48,-0.50,-1.44,-2.45,9.57
168490,-0.75,-1.10,-0.13,-1.43,-2.43,9.58
168495,-0.88,-1.35,0.01,-1.43,-2.41,9.58
168500,-1.02,-1.59,0.13,-1.41,-2.40,9.58
168505,-1.21,-1.77,0.21,-1.39,-2.39,9.59
168510,-1.33,-1.82,0.23,-1.38,-2.38,9.59
168516,-1.52,-1.84,0.25,-1.37,-2.36,9.58
168521,-1.80,-1.71,0.23,-1.35,-2.34,9.54
168525,-1.98,-1.56,0.21,-1.34,-2.33,9.50
168530,-2.14,-1.36,0.18,-1.33,-2.32,9.46
168535,-2.37,-0.86,0.08,-1.31,-2.33,9.37
168540,-2.57,-0.16,-0.13,-1.30,-2.37,9.27
168545,-2.63,0.55,-0.48,-1.32,-2.43,9.25
168551,-2.59,0.62,-0.53,-1.32,-2.44,9.26
168555,-2.32,1.00,-0.79,-1.33,-2.47,9.29
168560,-2.03,1.26,-0.99,-1.34,-2.48,9.32
168565,-1.68,1.51,-1.17,-1.34,-2.50,9.35
168570,-1.21,1.76,-1.35,-1.35,-2.51,9.37
168575,-0.89,1.88,-1.44,-1.35,-2.52,9.38
168580,-0.71,1.92,-1.46,-1.36,-2.53,9.39
168585,-0.50,1.93,-1.45,-1.36,-2.53,9.39
168590,-0.25,1.89,-1.34,-1.37,-2.54,9.39
168595,-0.21,1.83,-1.23,-1.37,-2.55,9.38
168600,-0.22,1.76,-1.10,-1.36,-2.55,9.36
168605,-0.28,1.65,-0.92,-1.35,-2.55,9.33
168610,-0.36,1.52,-0.71,-1.34,-2.54,9.29
168616,-0.49,1.40,-0.49,-1.33,-2.52,9.25
168621,-0.83,1.22,-0.17,-1.35,-2.47,9.19
168625,-0.93,1.19,-0.11,-1.36,-2.45,9.18
168630,-1.17,1.16,-0.02,-1.40,-2.41,9.17
168635,-1.33,1.16,0.01,-1.43,-2.38,9.17
168640,-1.51,1.18,0.03,-1.47,-2.35,9.19
168645,-1.61,1.23,0.02,-1.50,-2.33,9.23
168651,-1.68,1.35,-0.06,-1.53,-2.32,9.33
168655,-1.68,1.37,-0.09,-1.54,-2.32,9.35
168660,-1.68,1.41,-0.16,-1.56,-2.31,9.42
168665,-1.68,1.39,-0.21,-1.56,-2.31,9.45
168670,-1.66,1.26,-0.30,-1.58,-2.30,9.50
168675,-1.65,1.19,-0.34,-1.58,-2.30,9.52
168680,-1.63,0.76,-0.56,-1.59,-2.29,9.60
168685,-1.61,0.25,-0.82,-1.60,-2.29,9.67
168690,-1.60,-0.11,-1.01,-1.59,-2.30,9.71
168695,-1.58,-0.76,-1.37,-1.58,-2.31,9.76
168701,-1.56,-1.04,-1.54,-1.57,-2.31,9.75
168705,-1.55,-1.09,-1.57,-1.57,-2.31,9.73
168710,-1.48,-1.19,-1.63,-1.56,-2.31,9.65
168715,-1.46,-1.19,-1.63,-1.56,-2.31,9.63
168720,-1.43,-1.16,-1.62,-1.55,-2.31,9.59
168725,-1.37,-1.04,-1.58,-1.53,-2.31,9.54
168730,-1.31,-0.84,-1.50,-1.50,-2.32,9.49
168735,-1.24,-0.61,-1.40,-1.47,-2.33,9.45
168740,-0.96,1.09,-0.74,-1.24,-2.42,9.32
168745,-0.90,1.41,-0.61,-1.19,-2.44,9.31
168751,-0.79,2.13,-0.32,-1.08,-2.49,9.30
168755,-0.65,3.37,0.08,-0.93,-2.57,9.31
168760,-0.55,5.36,0.55,-0.76,-2.65,9.34
168766,-0.55,5.88,0.65,-0.73,-2.66,9.35
168770,-0.63,9.21,1.14,-0.63,-2.65,9.39
168775,-0.73,11.71,1.48,-0.59,-2.61,9.41
168780,-0.81,13.08,1.66,-0.59,-2.56,9.42
168785,-0.99,15.51,1.98,-0.61,-2.45,9.42
168790,-1.29,18.07,2.32,-0.70,-2.27,9.40
168795,-1.50,18.73,2.46,-0.76,-2.21,9.39
168801,-2.01,19.13,2.72,-0.88,-2.15,9.36
168805,-2.11,19.13,2.77,-0.90,-2.15,9.36
168810,-2.46,19.06,2.96,-0.94,-2.14,9.36
168815,-3.04,18.66,3.22,-0.98,-2.14,9.37
168820,-4.34,17.12,3.76,-1.01,-2.18,9.42
168825,-4.54,16.86,3.87,-1.03,-2.20,9.42
168830,-6.00,15.00,4.91,-1.21,-2.39,9.45
168835,-6.71,14.26,5.59,-1.34,-2.52,9.46
168840,-8.98,12.25,8.26,-1.87,-3.03,9.47
168845,-9.94,11.49,9.72,-2.16,-3.29,9.47
168850,-11.18,10.64,12.46,-2.54,-3.68,9.45
168855,-11.35,10.57,13.00,-2.57,-3.73,9.44
168860,-11.72,10.53,14.62,-2.57,-3.85,9.38
168866,-11.84,10.92,15.85,-2.40,-3.90,9.30
168870,-11.74,12.38,17.14,-1.89,-3.94,9.18
168875,-11.60,13.08,17.47,-1.67,-3.95,9.13
168880,-9.04,18.34,18.25,-0.55,-4.01,8.93
168885,-8.38,19.38,18.29,-0.41,-4.02,8.90
168890,-6.36,22.31,18.34,-0.06,-4.04,8.85
168895,-1.30,29.16,18.21,0.50,-4.08,8.79
168901,1.17,32.41,18.05,0.62,-4.16,8.79
168905,1.52,32.87,18.03,0.62,-4.21,8.79
168910,2.23,33.44,18.05,0.66,-4.44,8.80
168915,2.33,33.50,19.10,0.71,-4.73,8.82
168920,2.30,33.54,20.92,0.78,-5.10,8.84
168925,3.47,33.70,26.67,1.04,-6.04,8.95
168930,7.96,34.02,36.62,1.56,-7.31,9.33
168935,13.08,34.80,44.64,1.96,-8.32,9.73
168940,49.79,50.97,71.08,3.28,-11.64,11.55
168945,73.16,66.38,79.52,3.68,-12.74,12.36
168950,96.80,84.39,85.36,3.95,-13.51,13.04
168955,156.85,133.43,92.95,4.32,-14.45,14.17
168960,213.42,184.00,95.50,4.45,-14.75,14.90
168966,262.78,229.54,94.56,4.41,-14.61,15.77
168970,376.95,339.56,82.86,3.85,-13.47,19.26
168975,414.89,378.22,73.67,3.35,-12.63,21.85
168980,438.22,403.55,64.18,2.86,-11.89,24.20
168985,480.71,458.24,16.09,1.04,-9.34,33.07
168990,477.73,461.91,-10.50,0.63,-8.81,34.91
168995,460.01,452.67,-26.51,0.50,-8.59,35.28
169000,397.74,415.45,-59.62,0.63,-8.28,33.66
169005,307.84,362.59,-92.77,1.02,-8.06,29.89
169010,262.64,336.30,-107.23,1.26,-7.93,27.69
169016,148.13,270.26,-138.33,2.06,-7.22,21.10
169020,86.06,234.68,-152.85,2.56,-6.53,17.14
169025,41.09,208.89,-163.39,2.98,-5.79,14.09
169030,-31.81,167.12,-180.36,3.82,-3.61,8.47
169035,-68.57,145.52,-187.71,4.32,-1.60,5.56
169040,-80.11,139.34,-189.13,4.48,-0.63,4.97
169045,-90.55,135.47,-188.65,4.61,0.51,5.19
169051,-95.95,132.52,-187.25,4.69,1.43,5.97
169055,-97.72,131.16,-185.96,4.72,1.86,6.72
169060,-99.07,129.84,-184.55,4.74,2.24,7.49
169065,-100.71,124.99,-181.29,4.84,3.04,8.89
169070,-101.65,117.79,-177.66,4.97,3.63,9.93
169075,-102.54,111.35,-174.56,5.11,4.05,10.56
169080,-106.26,80.95,-161.19,5.78,5.11,11.73
169085,-108.53,58.02,-151.01,6.17,5.50,11.94
169090,-109.76,42.30,-143.72,6.37,5.63,11.96
169095,-111.05,14.00,-129.62,6.55,5.68,11.86
169100,-111.19,-7.44,-118.18,6.53,5.58,11.80
169105,-110.59,-20.16,-111.15,6.45,5.42,11.78
169110,-109.42,-34.31,-103.42,6.32,5.18,11.78
169116,-106.54,-50.96,-94.47,6.08,4.79,11.90
169120,-102.99,-63.44,-87.89,5.84,4.40,12.12
169125,-97.85,-78.58,-80.33,5.50,3.90,12.46
169130,-87.58,-100.58,-70.58,4.84,3.11,13.10
169135,-75.16,-126.68,-61.09,3.97,2.33,13.76
169140,-65.41,-149.66,-54.32,3.22,1.80,14.19
169145,-59.92,-166.25,-50.41,2.76,1.54,14.34
169151,-56.17,-184.85,-46.76,2.32,1.34,14.25
169155,-53.81,-208.56,-42.70,1.87,1.16,13.84
169160,-53.18,-221.41,-40.51,1.60,1.05,13.56
169165,-53.15,-231.76,-38.63,1.35,0.90,13.27
169170,-53.35,-239.43,-37.18,1.12,0.70,12.98
169175,-55.28,-269.21,-30.80,-0.15,-0.81,12.01
169180,-56.24,-285.25,-27.38,-1.20,-2.31,11.78
169185,-56.11,-291.18,-27.09,-1.55,-2.89,11.91
169190,-55.59,-296.33,-27.52,-1.81,-3.33,12.13
169195,-55.43,-297.17,-27.75,-1.85,-3.40,12.18
169200,-55.34,-297.62,-27.90,-1.87,-3.43,12.21
169205,-54.22,-301.79,-29.97,-2.05,-3.73,12.54
169210,-52.95,-304.97,-32.45,-2.18,-3.88,12.86
169216,-52.73,-305.42,-32.88,-2.20,-3.90,12.91
169221,-51.08,-308.00,-35.76,-2.31,-3.98,13.29
169225,-50.57,-308.57,-36.47,-2.33,-3.99,13.40
169230,-48.89,-309.82,-38.30,-2.40,-3.93,13.76
169235,-46.84,-310.25,-39.38,-2.46,-3.65,14.37
169240,-45.03,-309.93,-39.53,-2.50,-3.10,15.34
169245,-44.73,-309.51,-39.08,-2.51,-2.93,15.63
169250,-44.41,-307.90,-37.23,-2.54,-2.48,16.50
169255,-44.64,-305.36,-34.17,-2.61,-2.09,17.40
169260,-45.11,-302.68,-30.92,-2.67,-1.82,18.15
169266,-47.12,-296.97,-23.90,-2.85,-1.48,19.39
169270,-49.93,-291.24,-16.79,-3.09,-1.31,20.43
169275,-52.95,-285.74,-9.97,-3.42,-1.22,21.42
169280,-59.28,-275.42,3.62,-4.59,-1.14,23.33
169285,-64.76,-266.49,16.98,-6.24,-1.15,25.28
169290,-67.96,-261.27,25.68,-7.47,-1.16,26.54
169295,-71.97,-254.35,40.74,-9.75,-1.20,28.48
169300,-72.96,-252.47,46.43,-10.91,-1.22,29.06
169305,-73.21,-251.56,50.82,-11.99,-1.20,29.29
169310,-72.66,-251.49,54.69,-13.24,-1.12,29.23
169315,-70.86,-253.01,56.74,-14.71,-0.95,28.72
169320,-67.87,-256.05,57.85,-15.94,-0.58,27.73
169325,-61.30,-263.16,58.68,-17.77,0.27,25.56
169330,-54.55,-271.16,58.87,-18.95,1.22,23.08
169335,-48.00,-279.22,58.97,-19.85,2.18,20.26
169340,-34.75,-296.02,59.02,-21.03,4.21,12.54
169345,-30.02,-303.63,58.99,-22.02,4.99,7.15
169351,-31.12,-301.98,58.95,-22.98,4.88,4.12
169355,-39.76,-285.12,58.89,-26.41,3.70,0.96
169360,-43.09,-276.69,58.36,-27.49,3.25,-0.03
169366,-45.91,-268.58,57.09,-28.41,2.85,-0.74
169370,-49.57,-251.52,52.98,-29.92,2.30,-2.56
169375,-45.49,-230.37,42.88,-31.23,2.30,-6.33
169380,-34.90,-212.94,31.54,-31.80,2.76,-9.66
169385,-11.68,-196.96,17.86,-31.68,4.12,-12.89
169390,18.19,-175.32,3.26,-30.97,5.97,-15.68
169395,39.06,-156.58,-5.54,-29.78,7.33,-16.70
169401,60.29,-122.09,-14.49,-27.16,8.45,-16.55
169405,68.91,-85.51,-19.30,-24.17,8.58,-15.29
169410,70.55,-51.42,-21.40,-21.15,8.24,-13.57
169415,64.72,-13.91,-22.05,-17.57,7.25,-11.06
169420,45.91,43.00,-21.69,-11.86,5.18,-6.73
169425,28.34,78.87,-20.43,-8.12,3.84,-3.87
169431,-8.41,134.15,-15.35,-2.21,1.68,0.71
169435,-52.38,184.60,-5.21,3.17,0.02,4.79
169440,-64.98,198.01,0.88,4.58,-0.39,5.81
169445,-72.27,207.07,10.07,5.37,-0.51,6.28
169450,-69.83,210.15,25.73,5.15,-0.71,6.92
169455,-59.90,209.43,38.09,4.35,-1.20,7.70
169460,-50.67,208.66,46.27,3.60,-1.69,8.36
169466,-30.30,206.39,60.17,1.89,-3.02,10.13
169470,-1.19,203.03,75.83,-0.74,-5.99,14.29
169475,22.83,200.65,85.83,-2.86,-8.71,18.14
169480,58.26,198.15,93.96,-5.84,-13.21,24.44
169485,78.08,196.10,93.74,-7.04,-15.06,27.38
169490,91.70,193.13,89.61,-7.42,-15.47,28.75
169495,100.87,180.35,76.28,-6.24,-12.71,27.62
169500,99.96,165.41,65.91,-4.80,-9.52,25.75
169505,97.97,157.29,61.57,-4.03,-7.90,24.62
169510,93.87,144.75,56.14,-2.94,-5.71,22.67
169515,91.17,138.32,53.94,-2.46,-4.71,21.57
169520,88.47,133.19,52.21,-2.08,-4.01,20.64
169525,81.55,123.96,48.31,-1.45,-3.16,18.77
169530,71.10,116.89,44.83,-0.90,-2.81,17.03
169535,65.54,114.75,43.64,-0.63,-2.76,16.44
169540,59.73,111.64,42.11,-0.32,-2.66,15.56
169545,56.22,108.94,41.07,-0.08,-2.53,14.79
169550,53.43,106.04,39.94,0.08,-2.44,13.99
169555,48.89,93.42,32.48,-0.03,-2.60,11.41
169560,48.67,88.18,27.55,-0.23,-2.72,10.68
169565,48.70,86.55,25.73,-0.32,-2.76,10.48
169570,49.11,82.99,19.74,-0.59,-2.81,10.16
169575,49.57,81.42,15.79,-0.74,-2.75,10.07
169581,50.05,80.55,11.69,-0.89,-2.65,10.04
169585,50.79,81.25,4.00,-1.23,-2.49,10.24
169590,50.98,82.79,-2.82,-1.59,-2.39,10.54
169595,50.62,83.30,-4.22,-1.67,-2.39,10.61
169600,49.13,84.27,-7.21,-1.81,-2.40,10.77
169605,47.41,83.80,-8.85,-1.87,-2.42,10.84
169610,44.89,82.34,-10.25,-1.91,-2.45,10.89
169616,38.87,76.31,-11.86,-1.92,-2.52,10.91
169621,30.91,65.58,-12.64,-1.90,-2.59,10.88
169625,28.23,61.50,-12.72,-1.89,-2.61,10.86
169630,22.34,52.21,-12.64,-1.83,-2.63,10.77
169635,17.61,44.45,-12.34,-1.76,-2.64,10.65
169640,13.76,38.03,-11.88,-1.70,-2.65,10.51
169645,8.37,28.95,-10.36,-1.59,-2.69,10.20
169650,7.48,27.41,-9.92,-1.58,-2.70,10.14
169655,6.07,24.78,-9.05,-1.57,-2.71,10.04
169660,5.65,23.85,-8.74,-1.56,-2.71,10.01
169665,3.31,17.30,-6.37,-1.56,-2.66,9.85
169670,3.14,16.66,-6.14,-1.56,-2.65,9.83
169675,2.29,12.56,-4.74,-1.55,-2.62,9.75
169680,2.15,11.59,-4.40,-1.54,-2.62,9.73
169685,1.93,9.98,-3.85,-1.52,-2.62,9.68
169690,1.87,9.52,-3.71,-1.51,-2.62,9.67
169695,1.55,6.67,-2.95,-1.45,-2.62,9.53
169700,1.42,5.93,-2.86,-1.42,-2.62,9.48
169705,1.23,5.16,-2.80,-1.40,-2.61,9.42
169710,1.00,4.46,-2.73,-1.37,-2.61,9.37
169716,0.73,3.94,-2.65,-1.33,-2.62,9.33
169721,0.63,3.77,-2.63,-1.32,-2.62,9.31
169725,0.18,2.99,-2.42,-1.26,-2.63,9.27
169730,-0.42,2.13,-1.91,-1.20,-2.64,9.24
169735,-0.62,1.79,-1.66,-1.19,-2.64,9.25
169740,-0.78,1.49,-1.43,-1.18,-2.64,9.27
169745,-0.87,1.28,-1.28,-1.18,-2.63,9.29
169750,-0.94,1.11,-1.16,-1.19,-2.62,9.32
169755,-1.03,0.81,-0.96,-1.24,-2.60,9.40
169760,-1.06,0.69,-0.88,-1.30,-2.58,9.45
169765,-1.06,0.63,-0.84,-1.33,-2.58,9.46
169770,-1.05,0.60,-0.81,-1.36,-2.57,9.47
169775,-1.03,0.52,-0.76,-1.38,-2.56,9.47
169781,-1.02,0.36,-0.69,-1.40,-2.55,9.47
169785,-0.96,-0.25,-0.50,-1.41,-2.51,9.45
169790,-0.87,-1.34,-0.30,-1.40,-2.43,9.42
169795,-0.82,-1.84,-0.23,-1.40,-2.39,9.42
169800,-0.77,-2.39,-0.19,-1.39,-2.36,9.41
169805,-0.72,-2.80,-0.18,-1.38,-2.34,9.40
169810,-0.69,-3.08,-0.18,-1.38,-2.33,9.38
169816,-0.68,-3.25,-0.21,-1.38,-2.34,9.35
169821,-0.70,-3.33,-0.24,-1.38,-2.36,9.32
169825,-0.74,-3.37,-0.30,-1.39,-2.38,9.29
169832,-0.96,-3.39,-0.45,-1.40,-2.41,9.23
169836,-1.08,-3.38,-0.50,-1.40,-2.42,9.22
169840,-1.20,-3.36,-0.54,-1.41,-2.41,9.23
169845,-1.38,-3.33,-0.58,-1.41,-2.41,9.24
169850,-1.56,-3.26,-0.63,-1.41,-2.39,9.26
169855,-1.64,-3.17,-0.66,-1.40,-2.38,9.28
169860,-1.69,-3.08,-0.69,-1.40,-2.37,9.29
169866,-1.72,-2.75,-0.84,-1.38,-2.35,9.31
169870,-1.71,-2.46,-1.00,-1.37,-2.34,9.32
169875,-1.67,-2.18,-1.15,-1.36,-2.34,9.32
169880,-1.58,-1.73,-1.41,-1.34,-2.34,9.32
169885,-1.52,-1.47,-1.56,-1.33,-2.34,9.32
169890,-1.44,-1.21,-1.71,-1.32,-2.34,9.32
169895,-1.29,-0.72,-2.01,-1.32,-2.36,9.33
169900,-1.16,-0.33,-2.23,-1.33,-2.38,9.35
169905,-1.08,-0.09,-2.35,-1.33,-2.39,9.38
169910,-1.00,0.14,-2.46,-1.33,-2.41,9.40
169915,-0.93,0.35,-2.56,-1.32,-2.43,9.43
169920,-0.87,0.48,-2.63,-1.32,-2.44,9.46
169925,-0.81,0.55,-2.69,-1.32,-2.44,9.47
169930,-0.72,0.68,-2.75,-1.33,-2.45,9.48
169935,-0.67,0.85,-2.78,-1.33,-2.45,9.46
169940,-0.58,1.18,-2.83,-1.34,-2.45,9.43
169945,-0.44,2.19,-2.94,-1.35,-2.46,9.36
169951,-0.28,3.58,-3.11,-1.36,-2.46,9.28
169955,-0.08,5.38,-3.33,-1.37,-2.45,9.19
169960,0.12,6.77,-3.51,-1.38,-2.43,9.14
169966,0.25,7.52,-3.61,-1.39,-2.41,9.12
169970,0.41,8.13,-3.70,-1.41,-2.40,9.11
169975,0.75,8.71,-3.79,-1.47,-2.39,9.13
169980,1.06,8.67,-3.73,-1.55,-2.40,9.18
169985,1.22,8.39,-3.56,-1.60,-2.42,9.22
169990,1.56,6.34,-2.34,-1.74,-2.47,9.40
169995,1.58,5.90,-2.09,-1.75,-2.48,9.43
170000,1.61,4.34,-1.19,-1.78,-2.52,9.53
170005,1.57,2.85,-0.51,-1.80,-2.56,9.60
170010,1.49,1.58,-0.10,-1.80,-2.59,9.62
170015,1.39,0.23,0.09,-1.79,-2.61,9.62
170020,1.36,-0.24,0.13,-1.77,-2.62,9.61
170025,1.31,-0.81,0.17,-1.72,-2.62,9.58
170030,1.25,-1.53,0.22,-1.56,-2.61,9.49
170035,1.23,-1.75,0.30,-1.42,-2.59,9.40
170040,1.23,-1.71,0.40,-1.33,-2.57,9.34
170045,1.23,-1.49,0.55,-1.22,-2.54,9.25
170050,1.23,-0.87,0.76,-1.12,-2.50,9.11
170055,1.22,-0.17,0.88,-1.09,-2.48,9.04
170060,1.18,1.00,1.00,-1.07,-2.46,8.98
170066,1.07,2.99,1.16,-1.06,-2.44,8.95
170070,0.95,4.58,1.25,-1.05,-2.44,9.00
170075,0.76,6.30,1.36,-1.05,-2.43,9.08
170080,0.30,9.40,1.57,-1.01,-2.42,9.31
170085,-0.11,11.12,1.77,-1.00,-2.41,9.48
170090,-0.42,12.03,1.94,-1.00,-2.39,9.59
170095,-0.86,12.91,2.15,-1.03,-2.37,9.68
170100,-1.40,13.72,2.40,-1.09,-2.32,9.73
170105,-1.86,14.38,2.46,-1.13,-2.29,9.73
170110,-2.27,14.98,2.39,-1.16,-2.25,9.70
170115,-2.57,15.54,2.29,-1.19,-2.23,9.65
170120,-2.64,15.68,2.25,-1.19,-2.22,9.63
170125,-2.72,15.80,2.21,-1.19,-2.22,9.60
170130,-2.77,15.46,2.50,-1.28,-2.25,9.54
170135,-2.86,15.13,2.69,-1.33,-2.27,9.53
170140,-4.04,13.27,3.92,-1.60,-2.39,9.50
170145,-4.50,12.86,4.32,-1.65,-2.43,9.50
170150,-5.63,11.99,5.28,-1.76,-2.55,9.52
170155,-6.18,11.63,5.76,-1.81,-2.61,9.52
170160,-8.35,10.49,8.00,-1.91,-2.95,9.55
170165,-8.67,10.34,8.38,-1.91,-3.01,9.55
170170,-9.72,9.85,9.81,-1.88,-3.25,9.55
170175,-11.20,9.32,12.81,-1.78,-3.69,9.50
170182,-11.52,9.31,13.92,-1.71,-3.81,9.47
170185,-11.71,9.41,15.08,-1.62,-3.89,9.43
170190,-11.73,9.60,16.06,-1.53,-3.92,9.39
170195,-11.72,9.85,17.15,-1.38,-3.95,9.32
170200,-11.91,10.05,18.78,-1.12,-3.95,9.19
170205,-11.99,10.05,19.26,-1.05,-3.95,9.16
170210,-12.04,9.81,20.15,-0.95,-3.98,9.11
170216,-11.44,8.79,23.22,-0.76,-4.14,9.10
170220,-8.88,7.90,30.35,-0.57,-4.36,9.11
170225,-6.38,7.28,38.55,-0.38,-4.61,9.13
170230,-1.68,6.62,54.17,-0.07,-5.11,9.15
170235,4.56,6.93,68.34,0.27,-5.71,9.17
170240,11.82,9.74,79.51,0.57,-6.27,9.19
170245,20.67,13.61,89.23,0.90,-6.91,9.21
170250,54.13,37.50,102.19,1.70,-8.43,9.76
170255,119.65,97.77,109.54,2.59,-10.49,11.33
170260,196.35,176.06,112.35,3.18,-12.16,12.90
170265,243.46,226.45,112.29,3.37,-12.93,13.73
170270,289.43,276.30,111.68,3.40,-13.34,14.32
170275,385.54,383.74,108.32,3.37,-13.87,15.15
170281,410.98,412.80,105.95,3.33,-13.99,15.55
170285,484.84,497.80,78.44,3.10,-14.30,18.23
170290,491.13,504.29,72.36,3.08,-14.30,18.80
170295,497.03,510.83,60.37,3.05,-14.21,19.87
170300,493.19,506.50,33.02,3.01,-13.80,21.87
170305,484.01,495.35,10.03,2.95,-13.38,23.25
170310,244.52,328.78,-129.35,2.47,-7.27,27.06
170315,112.14,252.45,-163.00,2.32,-5.04,24.61
170320,82.84,236.43,-168.43,2.31,-4.61,23.59
170325,57.40,222.78,-172.56,2.30,-4.25,22.56
170330,-9.54,188.27,-180.94,2.30,-3.32,18.97
170335,-53.02,166.57,-185.88,2.34,-2.74,15.72
170340,-88.33,149.32,-189.30,2.47,-2.30,12.56
170345,-125.10,134.10,-189.22,2.80,-1.50,8.42
170350,-138.30,126.72,-187.82,3.39,-0.43,5.95
170355,-136.90,126.22,-187.13,3.63,0.01,5.78
170360,-130.38,120.99,-185.58,4.13,1.15,6.36
170365,-125.47,113.71,-184.21,4.49,2.12,6.99
170370,-121.25,104.58,-182.43,4.82,3.04,7.66
170375,-116.13,88.27,-177.94,5.25,4.26,8.75
170381,-112.18,68.34,-170.73,5.72,5.40,9.78
170386,-110.53,55.88,-165.02,6.01,5.95,10.28
170390,-109.37,40.74,-156.95,6.32,6.46,10.75
170395,-108.70,16.71,-141.73,6.73,6.98,11.23
170400,-108.42,1.32,-130.94,6.92,7.18,11.41
170405,-108.32,-18.92,-115.19,7.07,7.25,11.53
170410,-108.24,-35.75,-101.73,7.07,7.13,11.59
170416,-107.68,-48.15,-91.88,7.00,6.93,11.62
170420,-105.23,-71.86,-73.31,6.69,6.25,11.66
170425,-100.64,-93.11,-58.53,6.18,5.27,11.77
170432,-94.93,-111.10,-48.00,5.63,4.30,11.95
170435,-88.22,-127.68,-39.88,5.09,3.36,12.19
170440,-79.25,-148.44,-32.49,4.39,2.19,12.55
170445,-72.34,-164.02,-28.50,3.90,1.38,12.85
170450,-65.98,-180.74,-25.91,3.34,0.51,13.14
170455,-59.58,-203.08,-24.18,2.56,-0.64,13.45
170460,-58.68,-207.19,-24.14,2.40,-0.86,13.48
170466,-54.09,-242.77,-25.57,0.67,-2.91,13.52
170470,-53.92,-245.54,-25.95,0.47,-3.10,13.45
170475,-53.90,-249.02,-26.54,0.20,-3.33,13.33
170480,-54.40,-256.24,-28.58,-0.47,-3.84,12.96
170485,-54.97,-263.50,-32.12,-1.08,-4.25,12.57
170490,-55.26,-267.68,-34.78,-1.36,-4.42,12.38
170495,-55.41,-280.30,-44.78,-1.98,-4.76,12.03
170500,-53.72,-291.01,-54.88,-2.26,-4.87,12.00
170505,-53.48,-292.15,-55.99,-2.28,-4.87,12.01
170510,-50.59,-302.89,-66.72,-2.43,-4.77,12.26
170515,-50.08,-304.48,-68.21,-2.43,-4.72,12.33
170520,-48.24,-309.30,-72.47,-2.44,-4.45,12.60
170525,-46.67,-311.55,-74.09,-2.43,-4.17,12.78
170531,-43.33,-313.72,-75.02,-2.40,-3.56,13.02
170535,-42.54,-313.92,-75.05,-2.39,-3.42,13.06
170540,-40.46,-314.21,-74.77,-2.37,-3.10,13.13
170545,-35.95,-314.21,-72.89,-2.33,-2.47,13.18
170551,-32.62,-313.93,-71.07,-2.30,-1.99,13.27
170555,-23.74,-312.21,-63.52,-2.21,-0.66,13.74
170560,-15.50,-308.12,-51.76,-2.12,0.75,14.68
170566,-9.02,-301.88,-37.52,-2.08,1.97,15.93
170570,-5.96,-297.21,-27.82,-2.18,2.59,16.79
170575,-1.49,-288.51,-10.07,-2.52,3.39,18.38
170580,1.84,-280.86,6.41,-3.02,3.88,19.89
170585,6.08,-270.35,30.79,-4.20,4.27,22.18
170590,9.39,-263.09,50.23,-5.38,4.34,24.05
170595,14.44,-254.72,74.57,-7.32,4.31,26.44
170600,17.07,-251.72,85.09,-8.36,4.14,27.46
170605,20.60,-250.32,96.25,-9.70,3.82,28.31
170610,25.73,-250.41,106.56,-11.33,3.43,28.91
170615,35.13,-253.22,120.19,-14.09,2.81,29.40
170620,42.06,-258.36,127.52,-16.09,2.45,29.31
170625,51.46,-268.97,135.39,-18.86,2.06,28.80
170631,54.69,-274.78,137.73,-19.93,1.95,28.26
170635,58.83,-284.91,139.86,-21.36,1.87,26.82
170640,59.99,-291.23,140.35,-22.01,1.86,25.21
170645,58.96,-297.64,140.31,-22.86,1.86,21.84
170650,36.33,-295.70,138.12,-24.11,1.78,14.88
170655,24.44,-292.72,137.12,-24.63,1.71,12.96
170660,-13.06,-276.54,133.38,-26.26,1.19,8.78
170665,-22.89,-271.17,132.18,-26.73,1.00,7.71
170670,-59.78,-247.74,123.97,-28.74,0.08,3.67
170675,-86.55,-222.49,108.17,-30.58,-0.89,-0.32
170680,-97.31,-198.76,83.33,-31.95,-1.74,-5.12
170685,-92.38,-162.03,36.96,-33.12,-2.48,-11.93
170691,-85.82,-151.33,21.73,-33.14,-2.47,-13.68
170695,-70.69,-128.93,-6.77,-32.88,-2.18,-16.28
170700,-49.60,-92.81,-39.32,-31.58,-1.21,-17.92
170705,-32.25,-53.72,-62.22,-29.04,-0.02,-17.85
170710,-22.59,-14.32,-74.80,-25.76,1.05,-15.90
170715,-15.86,53.39,-84.41,-18.87,2.43,-10.15
170720,-17.35,80.75,-85.34,-15.64,2.70,-7.05
170725,-23.00,115.03,-84.53,-11.20,2.76,-2.73
170731,-38.40,158.48,-77.91,-4.61,2.14,3.12
170735,-58.72,190.81,-63.96,1.57,1.06,8.00
170740,-69.45,201.29,-53.45,4.08,0.38,9.66
170745,-83.49,208.91,-31.89,6.87,-0.64,10.99
170750,-83.97,209.45,-18.17,7.73,-1.05,11.19
170755,-77.32,208.96,-3.14,8.06,-1.32,11.22
170760,-60.02,206.57,15.79,7.65,-1.42,10.94
170765,-14.69,202.09,48.96,5.77,-1.55,10.39
170770,5.47,200.79,61.29,4.42,-1.61,10.33
170775,35.50,200.09,77.41,1.88,-1.78,10.46
170781,54.43,201.50,86.73,-0.53,-2.31,11.33
170785,64.09,203.59,90.63,-2.59,-3.09,13.07
170791,66.77,205.21,91.31,-3.53,-3.61,14.62
170795,67.54,207.37,90.96,-4.56,-4.50,17.48
170800,65.96,207.54,89.67,-5.13,-5.21,20.07
170805,64.25,206.24,88.14,-5.44,-5.99,22.45
170810,62.48,201.85,86.25,-5.33,-7.09,24.10
170816,61.18,194.33,83.93,-4.95,-8.37,24.58
170820,61.57,189.79,82.43,-4.61,-9.02,24.08
170825,64.56,180.98,78.87,-3.90,-9.99,22.20
170830,66.59,178.48,77.04,-3.69,-10.11,21.24
170835,71.27,173.42,72.05,-3.26,-9.81,19.06
170840,73.37,170.10,68.48,-3.01,-9.22,17.99
170845,76.77,159.40,57.39,-2.43,-7.34,15.74
170850,77.42,150.68,50.16,-2.10,-6.33,14.75
170855,77.38,127.14,32.87,-1.46,-4.21,12.80
170860,76.44,114.12,24.04,-1.22,-3.30,11.95
170865,72.77,90.41,8.85,-0.93,-1.96,10.60
170870,68.89,77.41,1.16,-0.84,-1.41,9.92
170875,61.24,61.73,-7.24,-0.79,-0.90,9.13
170881,57.57,57.14,-9.55,-0.81,-0.78,8.88
170885,50.63,51.74,-12.00,-0.88,-0.66,8.58
170890,46.97,50.01,-12.63,-0.94,-0.64,8.50
170895,42.13,48.02,-12.89,-1.03,-0.71,8.51
170900,37.88,46.65,-12.48,-1.12,-0.97,8.70
170905,31.73,44.39,-11.83,-1.23,-1.45,9.06
170910,29.24,43.19,-11.58,-1.26,-1.64,9.22
170916,24.29,40.49,-11.09,-1.30,-1.99,9.52
170920,19.89,37.79,-10.73,-1.31,-2.22,9.73
170925,14.59,34.15,-10.31,-1.32,-2.46,9.94
170930,10.36,31.01,-9.94,-1.33,-2.64,10.06
170935,4.91,26.50,-9.35,-1.37,-2.84,10.13
170940,4.32,25.96,-9.28,-1.38,-2.86,10.13
170945,3.18,24.54,-9.08,-1.41,-2.89,10.12
170950,2.13,22.37,-8.60,-1.45,-2.90,10.08
170955,1.31,20.02,-7.84,-1.48,-2.89,10.03
170960,0.80,17.69,-6.84,-1.49,-2.86,9.98
170965,0.13,13.35,-4.78,-1.47,-2.75,9.90
170970,0.02,12.51,-4.36,-1.46,-2.72,9.89
170975,-0.21,10.64,-3.45,-1.44,-2.64,9.86
170981,-0.55,7.55,-2.20,-1.40,-2.52,9.81
170985,-0.78,5.12,-1.40,-1.37,-2.43,9.78
170990,-0.87,3.85,-1.06,-1.35,-2.39,9.77
170995,-0.99,2.26,-0.55,-1.33,-2.36,9.76
171000,-1.02,1.83,-0.35,-1.33,-2.36,9.75
171005,-1.09,1.19,-0.03,-1.32,-2.35,9.74
171010,-1.23,0.38,0.48,-1.31,-2.33,9.70
171015,-1.47,-0.36,0.99,-1.32,-2.30,9.64
171020,-1.58,-0.58,1.13,-1.32,-2.29,9.62
171025,-1.90,-1.11,1.35,-1.34,-2.26,9.57
171031,-2.11,-1.39,1.40,-1.34,-2.26,9.54
171035,-2.47,-1.85,1.44,-1.34,-2.25,9.49
171040,-2.82,-2.34,1.42,-1.33,-2.25,9.42
171045,-3.05,-2.74,1.39,-1.33,-2.25,9.36
171050,-3.20,-3.19,1.37,-1.32,-2.27,9.29
171055,-3.30,-3.58,1.34,-1.32,-2.29,9.23
171060,-3.37,-3.96,1.32,-1.31,-2.31,9.18
171065,-3.42,-4.25,1.30,-1.30,-2.32,9.14
171070,-3.79,-4.90,1.22,-1.25,-2.37,9.04
171075,-3.98,-5.05,1.18,-1.23,-2.38,9.02
171080,-4.16,-5.14,1.14,-1.22,-2.38,9.01
171085,-4.44,-5.22,1.09,-1.20,-2.38,9.00
171090,-4.66,-5.23,1.06,-1.19,-2.39,8.99
171095,-5.11,-5.18,0.98,-1.18,-2.38,8.99
171100,-5.29,-5.10,0.95,-1.17,-2.38,8.99
171105,-5.42,-5.00,0.92,-1.17,-2.37,8.99
171110,-5.70,-4.32,0.87,-1.14,-2.34,9.00
171115,-5.72,-4.07,0.85,-1.13,-2.33,9.01
171120,-5.71,-3.95,0.85,-1.13,-2.32,9.01
171125,-5.64,-3.36,0.81,-1.11,-2.30,9.06
171131,-5.55,-3.01,0.78,-1.10,-2.28,9.09
171136,-5.45,-2.72,0.74,-1.11,-2.27,9.13
171140,-5.25,-2.10,0.64,-1.12,-2.25,9.17
171145,-5.08,-1.61,0.54,-1.15,-2.24,9.21
171150,-5.01,-1.42,0.49,-1.16,-2.24,9.24
171155,-4.86,-1.22,0.37,-1.18,-2.26,9.31
171160,-4.74,-1.17,0.29,-1.19,-2.28,9.37
171165,-4.61,-1.14,0.19,-1.19,-2.31,9.43
171170,-4.31,-1.17,-0.04,-1.20,-2.37,9.52
171175,-4.03,-1.21,-0.26,-1.20,-2.41,9.56
171180,-3.37,-1.30,-0.73,-1.22,-2.48,9.52
171185,-2.84,-1.35,-1.05,-1.24,-2.51,9.47
171190,-2.68,-1.36,-1.13,-1.25,-2.51,9.46
171196,-2.30,-1.38,-1.26,-1.25,-2.51,9.43
171200,-2.11,-1.39,-1.30,-1.24,-2.51,9.44
171205,-1.95,-1.39,-1.33,-1.24,-2.51,9.44
171210,-1.83,-1.41,-1.36,-1.23,-2.51,9.44
171215,-1.78,-1.44,-1.38,-1.23,-2.51,9.43
171220,-1.70,-1.49,-1.41,-1.23,-2.50,9.41
171225,-1.44,-1.74,-1.57,-1.23,-2.50,9.36
171232,-1.21,-1.89,-1.68,-1.23,-2.50,9.33
171235,-0.79,-2.13,-1.88,-1.24,-2.50,9.30
171240,-0.40,-2.30,-2.04,-1.24,-2.50,9.28
171245,-0.11,-2.40,-2.13,-1.24,-2.51,9.26
171250,0.15,-2.47,-2.18,-1.24,-2.53,9.25
171255,0.37,-2.52,-2.18,-1.24,-2.54,9.24
171260,0.48,-2.53,-2.12,-1.25,-2.56,9.23
171265,0.58,-2.55,-2.02,-1.25,-2.57,9.22
171270,0.67,-2.55,-1.82,-1.25,-2.57,9.20
171275,0.72,-2.53,-1.56,-1.26,-2.56,9.19
171282,0.73,-2.50,-1.35,-1.26,-2.53,9.17
171285,0.73,-2.39,-1.07,-1.25,-2.47,9.15
171290,0.71,-2.30,-0.95,-1.25,-2.44,9.13
171296,0.67,-2.14,-0.86,-1.24,-2.40,9.09
171300,0.60,-1.85,-0.84,-1.23,-2.36,9.05
171305,0.50,-1.37,-0.89,-1.22,-2.33,8.99
171310,0.45,-1.11,-0.96,-1.21,-2.32,8.98
171315,0.37,-0.61,-1.20,-1.21,-2.31,8.98
171320,0.34,-0.33,-1.39,-1.21,-2.30,8.99
171325,0.31,-0.00,-1.71,-1.21,-2.29,9.01
171330,0.30,0.44,-2.20,-1.20,-2.29,9.04
171335,0.29,1.15,-2.91,-1.18,-2.29,9.08
171340,0.30,1.35,-3.07,-1.16,-2.29,9.09
171345,0.33,1.79,-3.31,-1.13,-2.29,9.10
171350,0.42,2.59,-3.52,-1.08,-2.29,9.12
171355,0.53,3.24,-3.60,-1.05,-2.31,9.12
171360,0.67,3.89,-3.59,-1.03,-2.33,9.08
171365,0.84,4.69,-3.51,-1.00,-2.37,8.97
171370,0.96,5.29,-3.40,-1.00,-2.40,8.86
171375,1.06,5.99,-3.19,-0.99,-2.43,8.71
171381,1.15,7.87,-2.52,-0.95,-2.49,8.42
171385,1.11,10.91,-1.43,-0.87,-2.53,8.21
171390,1.04,12.00,-1.04,-0.83,-2.53,8.20
171395,0.81,14.40,-0.16,-0.78,-2.54,8.30
171400,0.53,16.54,0.67,-0.80,-2.56,8.52
171405,0.30,18.08,1.29,-0.85,-2.57,8.73
171410,0.04,19.72,1.96,-0.95,-2.60,8.98
171415,-0.27,21.52,2.67,-1.12,-2.66,9.27
171420,-0.42,22.51,3.00,-1.22,-2.70,9.39
171425,-0.57,23.57,3.32,-1.36,-2.75,9.45
171430,-0.89,25.00,3.68,-1.59,-2.80,9.36
171435,-1.15,25.55,3.82,-1.70,-2.83,9.26
171440,-1.38,25.43,3.89,-1.75,-2.84,9.17
171445,-1.83,24.45,4.00,-1.78,-2.87,9.06
171450,-2.54,23.07,4.08,-1.79,-2.91,9.01
171455,-3.54,21.28,4.18,-1.79,-2.96,8.97
171460,-4.98,18.91,4.51,-1.73,-3.03,8.96
171465,-6.74,16.29,5.30,-1.57,-3.11,8.96
171470,-8.28,14.17,6.19,-1.40,-3.19,8.96
171475,-11.37,10.32,9.32,-0.90,-3.36,8.99
171481,-12.87,8.65,11.41,-0.61,-3.46,9.00
171485,-14.26,7.37,13.88,-0.28,-3.55,9.01
171490,-14.98,7.00,15.40,-0.07,-3.55,8.99
171495,-15.10,7.06,16.24,0.07,-3.54,8.91
171500,-15.09,7.20,16.51,0.13,-3.52,8.85
171505,-15.06,7.32,16.94,0.16,-3.51,8.77
171510,-15.03,7.31,17.62,0.14,-3.52,8.68
171515,-14.98,7.26,18.49,0.12,-3.57,8.60
171520,-14.65,7.31,20.00,0.07,-3.72,8.57
171525,-12.96,7.73,23.25,0.00,-4.34,8.63
171530,-11.68,8.23,24.77,0.02,-4.75,8.70
171535,-7.49,9.94,27.65,0.14,-5.73,8.91
171540,1.14,12.27,31.66,0.36,-7.16,9.24
171545,15.79,16.52,35.31,0.44,-8.17,9.49
171550,30.08,23.43,37.29,0.36,-8.51,9.58
171555,52.35,35.77,38.69,0.25,-8.66,9.62
171560,80.45,55.28,38.36,0.12,-8.67,9.61
171565,112.68,79.68,36.91,-0.00,-8.66,9.59
171570,173.93,126.11,32.62,-0.11,-8.56,9.50
171575,232.91,171.77,26.98,-0.15,-8.42,9.41
171581,319.60,239.76,18.82,-0.16,-8.11,9.29
171586,504.88,388.54,3.08,-0.15,-6.96,9.08
171590,558.77,435.09,-0.82,-0.15,-6.32,9.06
171595,605.34,478.12,-4.13,-0.16,-5.57,9.03
171600,653.01,529.24,-7.49,0.12,-4.26,8.65
171605,667.78,548.28,-9.94,0.55,-3.65,8.22
171610,655.58,548.42,-13.06,1.09,-3.39,7.72
171615,611.87,531.74,-18.10,1.86,-3.34,7.12
171620,522.48,490.08,-28.46,2.81,-3.62,6.55
171625,402.44,427.25,-43.73,3.67,-4.02,6.18
171631,183.42,296.59,-73.71,4.66,-4.82,6.07
171635,52.50,210.37,-93.83,5.01,-5.24,6.14
171640,-30.21,150.30,-108.54,5.14,-5.34,6.29
171645,-88.44,102.04,-122.72,5.15,-5.15,6.49
171650,-123.21,68.29,-136.17,5.01,-4.28,6.76
171655,-129.32,59.93,-142.32,4.91,-3.50,6.93
171660,-125.79,58.14,-147.34,4.79,-2.52,7.13
171665,-119.07,57.37,-151.08,4.67,-1.32,7.36
171670,-111.39,58.28,-152.89,4.63,-0.36,7.62
171675,-103.46,59.22,-153.85,4.65,0.67,7.97
171680,-97.60,51.77,-152.21,4.92,2.61,8.71
171685,-98.50,43.70,-149.80,5.12,3.43,9.02
171690,-102.72,35.16,-146.55,5.28,3.96,9.22
171695,-110.19,23.07,-140.76,5.43,4.25,9.45
171700,-117.05,12.96,-134.80,5.49,4.33,9.61
171705,-123.78,2.74,-128.13,5.53,4.32,9.77
171710,-129.26,-6.71,-121.24,5.53,4.14,9.97
171715,-133.64,-14.99,-114.45,5.46,3.83,10.18
171720,-136.08,-21.92,-108.90,5.39,3.51,10.37
171725,-138.27,-43.68,-92.94,4.89,2.44,11.31
171731,-136.75,-53.58,-87.44,4.56,2.04,11.83
171735,-131.19,-69.71,-80.21,3.93,1.50,12.73
171740,-124.16,-85.65,-75.50,3.41,1.15,13.45
171745,-116.39,-99.98,-72.54,2.99,0.95,13.98
171750,-89.02,-163.06,-67.44,2.16,0.81,14.16
171755,-86.68,-170.98,-67.15,2.11,0.82,13.98
171760,-85.48,-175.45,-66.98,2.09,0.83,13.85
171765,-82.70,-189.11,-66.36,2.00,0.85,13.41
171770,-80.95,-202.70,-65.39,1.88,0.86,12.91
171775,-79.95,-211.72,-64.57,1.77,0.84,12.52
171780,-80.07,-249.62,-56.74,0.65,0.35,11.00
171785,-80.63,-255.02,-54.39,0.28,0.09,10.95
171790,-80.96,-257.78,-53.10,0.06,-0.09,10.96
171795,-81.53,-262.18,-51.15,-0.32,-0.44,11.13
171800,-81.66,-262.99,-50.75,-0.41,-0.52,11.22
171805,-81.97,-264.96,-50.05,-0.59,-0.71,11.51
171810,-82.46,-269.98,-49.25,-0.96,-1.13,12.19
171815,-82.86,-275.71,-48.89,-1.33,-1.56,13.09
171820,-83.00,-279.33,-48.96,-1.50,-1.75,13.53
171825,-83.18,-284.23,-49.13,-1.69,-1.91,13.99
171831,-83.31,-286.81,-49.26,-1.77,-1.95,14.15
171835,-83.45,-289.48,-49.40,-1.86,-1.95,14.30
171840,-83.79,-295.19,-49.21,-2.11,-1.74,14.71
171845,-83.85,-296.39,-49.01,-2.17,-1.64,14.87
171850,-82.95,-299.10,-46.99,-2.33,-1.19,15.67
171855,-81.86,-300.06,-45.17,-2.40,-0.88,16.27
171860,-80.62,-300.65,-42.97,-2.45,-0.59,16.85
171865,-79.59,-301.03,-40.75,-2.49,-0.31,17.42
171870,-77.42,-300.89,-3.29,-3.76,2.68,23.18
171876,-78.81,-300.52,2.03,-4.02,2.92,23.64
171880,-80.60,-300.09,6.21,-4.24,3.09,23.97
171885,-81.47,-299.88,8.01,-4.34,3.15,24.10
171890,-98.94,-294.37,46.24,-6.76,3.71,25.25
171895,-103.65,-292.21,56.90,-7.79,3.75,25.36
171900,-107.39,-290.26,65.84,-8.69,3.68,25.32
171905,-110.66,-287.93,76.66,-9.91,3.46,25.08
171910,-112.84,-285.16,90.59,-11.88,3.08,24.61
171915,-113.39,-283.17,101.07,-13.58,2.73,24.03
171920,-109.54,-281.41,111.30,-15.61,2.32,22.96
171925,-104.19,-280.27,115.74,-16.83,2.06,22.08
171930,-94.24,-278.72,119.04,-18.10,1.79,20.93
171935,-88.23,-277.73,119.83,-18.68,1.62,20.19
171940,-73.92,-274.05,119.68,-19.73,1.11,17.61
171945,-68.25,-271.04,118.60,-20.37,0.75,15.98
171950,-64.21,-267.20,115.19,-21.04,0.36,14.31
171955,-59.05,-261.58,109.11,-22.03,-0.19,12.16
171961,-53.20,-254.61,97.93,-23.79,-0.92,9.80
171965,-47.36,-248.44,84.23,-25.65,-1.56,7.50
171970,-29.80,-236.89,43.36,-30.19,-2.83,0.48
171975,-13.89,-230.17,12.19,-32.76,-3.28,-4.70
171981,-2.60,-227.43,-7.66,-34.01,-3.04,-7.96
171985,16.04,-222.83,-35.80,-34.91,-2.10,-11.95
171990,44.68,-212.58,-68.64,-34.88,-0.07,-15.72
171995,69.48,-197.93,-93.24,-33.95,1.93,-17.71
172000,102.12,-157.95,-120.72,-30.11,4.94,-18.36
172005,122.60,-104.78,-134.37,-25.30,6.88,-17.55
172010,124.03,-79.98,-136.31,-23.25,7.25,-16.41
172015,117.16,-36.50,-133.75,-19.70,7.16,-13.51
172020,71.54,67.29,-115.32,-11.58,5.19,-4.59
172025,36.99,118.87,-103.29,-7.21,3.78,0.97
172030,-38.46,196.93,-79.12,0.33,0.77,11.82
172035,-55.07,211.17,-74.57,1.89,0.14,14.21
172040,-76.36,228.90,-69.42,3.86,-0.65,17.23
172046,-96.42,242.50,-62.99,5.74,-1.28,20.03
172050,-110.75,246.03,-51.24,7.28,-1.41,22.18
172055,-106.23,239.02,-38.52,7.24,-0.91,21.83
172060,-92.68,227.02,-24.82,6.55,-0.06,20.58
172065,-68.40,209.30,-2.38,5.13,1.23,18.48
172070,-45.15,195.11,19.46,3.58,2.36,16.56
172075,-23.72,183.38,38.86,2.05,3.10,14.83
172081,11.69,167.31,68.68,-0.81,2.85,12.02
172085,33.61,159.94,84.04,-2.67,1.22,10.32
172090,46.91,156.58,90.66,-3.81,-1.49,9.33
172095,55.78,153.80,92.57,-4.57,-4.53,8.79
172100,62.70,151.38,91.49,-5.13,-8.02,8.48
172105,65.36,149.21,88.63,-5.29,-9.93,8.39
172110,66.90,143.22,80.18,-5.26,-11.39,8.43
172115,68.09,134.46,68.06,-5.06,-11.13,8.68
172120,68.79,128.02,59.02,-4.81,-9.69,9.16
172125,69.53,121.53,50.72,-4.51,-7.90,9.91
172130,71.64,107.91,37.79,-3.68,-3.66,12.86
172135,71.69,106.91,37.24,-3.59,-3.42,13.12
172140,71.14,103.58,35.47,-3.22,-2.62,14.07
172145,49.16,86.30,29.03,0.13,-0.50,15.47
172150,39.33,80.92,26.81,0.78,-0.77,13.55
172155,38.85,80.59,26.61,0.76,-0.82,13.40
172160,38.28,80.19,26.35,0.75,-0.88,13.21
172165,37.94,79.95,26.19,0.74,-0.92,13.09
172170,34.77,75.59,21.96,0.16,-2.04,10.54
172175,38.47,73.66,17.04,-0.63,-2.73,9.28
172181,39.09,73.63,16.50,-0.69,-2.74,9.22
172185,39.40,73.63,16.25,-0.71,-2.75,9.20
172190,39.91,73.66,15.84,-0.75,-2.75,9.17
172195,41.23,73.88,14.79,-0.85,-2.74,9.14
172200,43.64,74.95,12.39,-1.09,-2.67,9.20
172205,45.61,77.35,9.51,-1.37,-2.56,9.42
172210,47.85,80.68,5.03,-1.76,-2.42,9.89
172215,49.34,82.66,0.49,-2.02,-2.33,10.50
172220,48.87,80.82,-0.64,-2.00,-2.31,10.69
172225,47.20,76.34,-1.81,-1.93,-2.30,10.86
172230,45.58,73.15,-2.38,-1.88,-2.30,10.94
172235,41.58,67.28,-3.20,-1.79,-2.31,11.02
172240,34.99,60.01,-4.37,-1.69,-2.33,11.00
172245,25.93,51.62,-5.67,-1.61,-2.40,10.90
172250,23.08,49.35,-6.07,-1.59,-2.43,10.81
172255,19.01,46.01,-6.59,-1.56,-2.49,10.64
172260,15.43,41.81,-6.96,-1.54,-2.55,10.44
172265,11.50,36.41,-7.31,-1.53,-2.64,10.12
172270,7.99,28.10,-7.19,-1.52,-2.70,9.77
172275,7.14,24.43,-6.82,-1.52,-2.71,9.68
172280,6.63,22.10,-6.41,-1.51,-2.71,9.65
172285,6.00,19.01,-5.64,-1.51,-2.71,9.63
172290,5.67,17.33,-5.11,-1.50,-2.70,9.63
172296,5.25,15.29,-4.32,-1.49,-2.69,9.64
172300,4.39,11.28,-2.16,-1.45,-2.62,9.71
172305,4.30,10.93,-1.89,-1.44,-2.61,9.71
172310,4.12,10.15,-1.22,-1.42,-2.58,9.73
172315,3.92,9.50,-0.85,-1.39,-2.56,9.73
172320,3.32,8.27,-0.40,-1.36,-2.53,9.70
172325,3.13,7.95,-0.34,-1.35,-2.53,9.68
172331,0.80,4.68,-0.18,-1.25,-2.49,9.46
172335,0.49,4.30,-0.19,-1.24,-2.49,9.43
172340,0.04,3.77,-0.22,-1.22,-2.49,9.37
172345,-0.33,3.38,-0.28,-1.20,-2.49,9.31
172350,-0.62,3.08,-0.42,-1.16,-2.50,9.23
172355,-0.34,3.43,-0.63,-1.14,-2.51,9.18
172360,0.13,4.01,-0.85,-1.13,-2.51,9.17
172365,0.39,4.32,-0.95,-1.13,-2.51,9.17
172370,0.95,4.99,-1.16,-1.13,-2.51,9.17
172375,1.39,5.54,-1.35,-1.13,-2.51,9.17
172380,2.00,6.31,-1.63,-1.16,-2.51,9.18
172385,2.19,6.55,-1.72,-1.17,-2.51,9.19
172390,3.18,7.85,-2.34,-1.33,-2.52,9.23
172395,3.48,8.31,-2.58,-1.42,-2.53,9.27
172400,3.58,8.47,-2.66,-1.47,-2.54,9.30
172405,3.62,8.50,-2.75,-1.52,-2.55,9.33
172410,3.54,8.15,-2.81,-1.60,-2.56,9.39
172415,3.39,7.55,-2.82,-1.66,-2.57,9.47
172420,3.20,6.91,-2.75,-1.67,-2.56,9.49
172425,2.93,6.10,-2.60,-1.64,-2.55,9.49
172431,2.79,5.71,-2.51,-1.63,-2.54,9.48
172435,2.63,5.32,-2.40,-1.60,-2.52,9.46
172440,2.24,4.70,-2.18,-1.56,-2.48,9.41
172445,2.16,4.60,-2.15,-1.55,-2.47,9.40
172450,1.91,4.27,-2.13,-1.54,-2.45,9.35
172455,1.86,4.15,-2.14,-1.54,-2.45,9.34
172460,1.77,3.90,-2.18,-1.54,-2.45,9.32
172465,1.73,3.78,-2.19,-1.54,-2.44,9.32
172470,1.50,3.01,-2.29,-1.53,-2.45,9.31
172475,1.38,2.61,-2.32,-1.53,-2.45,9.30
172480,1.18,1.97,-2.33,-1.51,-2.46,9.31
172485,1.01,1.54,-2.29,-1.49,-2.47,9.32
172490,0.91,1.33,-2.18,-1.48,-2.47,9.32
172496,0.85,1.21,-2.08,-1.47,-2.47,9.32
172500,0.69,0.94,-1.74,-1.46,-2.45,9.31
172505,0.60,0.69,-1.42,-1.45,-2.44,9.31
172510,0.55,0.42,-1.14,-1.44,-2.43,9.29
172515,0.54,0.34,-1.09,-1.44,-2.43,9.29
172520,0.54,0.18,-1.02,-1.43,-2.44,9.28
172525,0.54,0.04,-0.97,-1.42,-2.45,9.27
172531,0.52,-0.41,-0.83,-1.39,-2.45,9.23
172535,0.49,-0.72,-0.76,-1.38,-2.45,9.21
172540,0.46,-0.83,-0.73,-1.38,-2.45,9.20
172546,0.44,-0.87,-0.72,-1.38,-2.44,9.20
172550,0.43,-0.92,-0.70,-1.39,-2.44,9.20
172555,0.41,-1.02,-0.67,-1.39,-2.43,9.19
172561,0.30,-1.38,-0.51,-1.42,-2.41,9.17
172565,0.26,-1.54,-0.44,-1.43,-2.39,9.15
172570,0.23,-1.91,-0.35,-1.44,-2.35,9.14
172575,0.23,-2.04,-0.35,-1.44,-2.34,9.14
172581,0.23,-2.26,-0.37,-1.43,-2.32,9.14
172585,0.24,-2.46,-0.40,-1.41,-2.31,9.16
172590,0.30,-2.91,-0.57,-1.35,-2.28,9.20
172595,0.39,-3.19,-0.77,-1.29,-2.27,9.24
172600,0.56,-3.42,-1.07,-1.24,-2.28,9.29
172605,0.72,-3.54,-1.33,-1.21,-2.28,9.34
172610,0.92,-3.63,-1.65,-1.19,-2.31,9.40
172615,1.03,-3.63,-1.81,-1.18,-2.33,9.43
172620,1.25,-3.55,-2.11,-1.22,-2.38,9.49
172625,1.34,-3.47,-2.22,-1.24,-2.41,9.50
172631,1.38,-3.40,-2.26,-1.26,-2.43,9.48
172635,1.41,-3.31,-2.27,-1.28,-2.44,9.43
172640,1.40,-3.05,-2.13,-1.30,-2.46,9.31
172646,1.38,-2.82,-1.95,-1.30,-2.47,9.24
172650,1.33,-2.46,-1.66,-1.27,-2.47,9.17
172655,1.23,-1.78,-1.16,-1.20,-2.47,9.09
172660,1.15,-1.11,-0.79,-1.15,-2.49,9.06
172665,1.04,-0.17,-0.40,-1.08,-2.52,9.02
172670,0.74,2.86,0.43,-0.91,-2.56,8.94
172675,0.47,5.45,1.01,-0.78,-2.55,8.88
172681,0.24,7.50,1.41,-0.69,-2.50,8.82
172685,-0.18,10.71,2.13,-0.59,-2.38,8.77
172690,-0.63,12.89,2.74,-0.57,-2.30,8.76
172695,-1.20,14.97,3.37,-0.58,-2.22,8.77
172700,-3.60,20.00,5.12,-1.02,-2.10,8.90
172705,-3.77,20.26,5.21,-1.06,-2.09,8.90
172710,-4.09,20.72,5.35,-1.14,-2.08,8.92
172715,-4.80,21.61,5.62,-1.27,-2.07,8.96
172720,-5.16,22.13,5.73,-1.31,-2.06,8.99
172725,-5.51,22.44,5.84,-1.34,-2.06,9.02
172730,-6.16,22.28,6.10,-1.38,-2.06,9.11
172735,-7.10,20.92,6.64,-1.41,-2.07,9.31
172740,-7.53,19.71,7.07,-1.42,-2.12,9.39
172746,-8.05,18.14,7.67,-1.41,-2.19,9.47
172750,-8.66,16.66,8.48,-1.40,-2.30,9.54
172755,-9.30,15.29,9.62,-1.36,-2.44,9.60
172760,-10.27,13.43,11.62,-1.32,-2.66,9.62
172765,-11.52,11.39,15.08,-1.25,-2.94,9.55
172770,-11.78,11.00,16.29,-1.21,-2.99,9.45
172775,-11.83,11.08,17.30,-1.15,-3.00,9.31
172780,-11.79,11.33,18.01,-1.05,-2.99,9.19
172785,-11.63,11.84,18.81,-0.88,-2.97,9.02
172790,-11.35,12.28,19.19,-0.74,-2.94,8.93
172795,-10.54,13.18,19.73,-0.41,-2.95,8.83
172800,-9.56,14.09,20.09,-0.08,-3.06,8.79
172805,-6.89,17.39,23.64,0.79,-3.51,8.76
172810,-6.08,18.64,26.02,1.02,-3.69,8.76
172815,-2.69,24.06,37.26,1.92,-4.43,8.77
172821,2.21,30.59,51.71,2.69,-5.21,8.80
172825,13.90,42.29,76.54,3.71,-6.48,8.94
172830,30.47,54.51,103.05,4.55,-7.88,9.50
172835,54.77,75.88,123.15,5.11,-9.00,10.52
172840,68.47,91.51,129.63,5.26,-9.38,11.18
172846,103.26,138.98,136.14,5.36,-9.99,12.91
172850,151.14,215.21,138.43,5.38,-10.37,15.02
172855,203.69,302.26,138.13,5.30,-11.06,17.60
172860,231.33,350.19,136.02,5.20,-11.66,19.13
172865,247.78,379.56,133.97,5.12,-12.17,20.21
172870,262.10,421.59,124.15,4.92,-13.45,22.19
172875,253.23,431.93,107.80,4.72,-14.47,22.99
172880,244.63,430.12,97.49,4.60,-14.93,23.10
172885,176.58,409.62,26.32,3.97,-16.59,22.28
172890,117.20,372.84,-41.67,3.31,-16.95,19.93
172897,82.95,345.16,-82.80,2.92,-16.38,17.85
172901,33.69,297.94,-148.42,2.37,-14.13,14.24
172905,0.41,259.44,-197.11,2.09,-10.87,11.24
172910,-21.61,234.49,-227.13,2.17,-7.70,9.53
172915,-46.43,209.07,-253.76,2.77,-2.47,8.12
172920,-57.61,202.74,-258.83,3.23,-0.27,8.05
172925,-64.87,199.31,-260.42,3.60,1.06,8.20
172931,-77.11,192.78,-255.44,4.26,2.88,8.87
172935,-89.87,186.00,-242.93,4.99,4.25,10.12
172940,-97.28,173.70,-226.28,5.60,4.99,11.31
172946,-99.44,158.75,-211.08,6.01,5.39,12.08
172950,-99.77,146.02,-201.35,6.30,5.75,12.42
172955,-99.09,137.24,-196.62,6.47,5.98,12.59
172960,-95.23,117.71,-185.61,6.82,6.46,12.76
172965,-85.14,82.21,-166.08,7.34,7.39,12.77
172971,-72.29,45.59,-145.28,7.69,8.18,12.65
172975,-57.87,11.00,-123.41,7.86,8.69,12.30
172980,-48.83,-10.16,-108.22,7.89,8.85,11.99
172985,-41.57,-27.15,-95.29,7.88,8.88,11.70
172990,-32.76,-49.09,-76.60,7.74,8.65,11.33
172996,-22.44,-77.98,-50.05,7.37,7.92,10.91
173000,-18.30,-91.75,-40.08,7.14,7.43,10.80
173005,-14.71,-105.09,-31.10,6.86,6.83,10.73
173010,-8.48,-131.23,-17.44,6.30,5.57,10.71
173015,-3.06,-159.44,-5.73,5.48,3.78,10.71
173020,-0.71,-175.34,0.88,4.84,2.39,10.74
173025,0.62,-188.79,5.99,4.11,0.84,10.77
173031,1.20,-197.19,9.22,3.50,-0.41,10.78
173035,1.54,-206.31,11.51,2.71,-1.93,10.80
173040,1.47,-212.37,11.45,2.10,-3.02,10.82
173045,1.22,-218.46,10.08,1.63,-3.75,10.82
173050,0.92,-221.98,8.40,1.42,-4.05,10.81
173055,0.33,-227.37,5.50,1.14,-4.44,10.81
173060,-1.11,-238.76,0.53,0.66,-5.09,10.80
173065,-2.98,-250.00,-4.37,0.24,-5.63,10.80
173070,-7.83,-271.33,-14.67,-0.60,-6.74,10.84
173075,-9.11,-275.67,-17.43,-0.79,-6.98,10.85
173080,-11.51,-282.46,-22.51,-1.10,-7.38,10.87
173085,-13.63,-287.32,-27.31,-1.35,-7.67,10.89
173090,-16.85,-293.35,-36.07,-1.67,-8.03,10.96
173096,-19.74,-296.72,-45.27,-1.85,-8.18,11.10
173100,-20.44,-297.30,-47.73,-1.88,-8.20,11.18
173105,-22.77,-298.12,-55.43,-1.89,-8.15,11.57
173110,-23.43,-298.15,-57.36,-1.88,-8.10,11.73
173115,-24.40,-298.07,-59.82,-1.84,-7.99,12.02
173120,-27.34,-295.95,-64.12,-1.64,-7.37,13.14
173125,-28.49,-293.30,-63.67,-1.57,-7.03,13.51
173131,-30.58,-285.60,-60.84,-1.46,-6.38,14.23
173135,-31.09,-282.99,-59.40,-1.45,-6.21,14.43
173140,-31.97,-277.59,-55.80,-1.44,-5.92,14.83
173146,-33.54,-263.95,-44.89,-1.48,-5.26,16.25
173150,-35.08,-249.55,-31.46,-1.63,-4.68,18.65
173155,-35.90,-244.24,-25.72,-1.76,-4.50,19.86
173160,-37.97,-235.70,-15.38,-2.15,-4.26,22.43
173165,-40.50,-231.31,-9.14,-2.67,-4.22,24.48
173170,-42.96,-228.94,-5.39,-3.39,-4.28,26.13
173175,-46.08,-227.64,-2.42,-4.75,-4.51,28.27
173181,-51.10,-227.44,-0.19,-8.32,-5.17,31.62
173185,-52.27,-229.10,-0.42,-10.27,-5.48,32.82
173190,-51.77,-233.52,-1.47,-12.37,-5.78,33.59
173195,-47.32,-245.43,-3.85,-15.23,-5.95,33.75
173200,-38.01,-264.10,-6.87,-17.77,-5.85,33.22
173205,-31.63,-274.61,-8.31,-18.65,-5.24,32.25
173210,-23.42,-287.16,-9.59,-19.40,-3.75,30.29
173215,-11.34,-304.21,-8.59,-19.98,0.07,25.79
173220,-4.23,-312.97,-4.81,-20.26,3.52,21.73
173225,0.69,-316.56,3.05,-20.50,7.21,16.86
173230,2.70,-314.07,13.03,-20.69,10.25,12.47
173235,-0.15,-278.90,40.16,-21.76,14.78,2.11
173240,-3.22,-241.52,40.12,-22.44,15.07,-2.73
173246,22.00,-193.21,8.69,-22.75,14.56,-7.61
173250,34.65,-179.40,-3.10,-22.77,14.46,-8.64
173255,52.88,-161.95,-18.59,-22.77,14.36,-9.67
173260,83.39,-131.72,-42.80,-22.71,14.34,-10.73
173265,115.70,-95.13,-66.09,-22.28,14.53,-11.04
173270,136.75,-38.06,-79.33,-20.87,14.95,-9.59
173275,132.53,1.80,-75.83,-18.65,14.74,-7.64
173281,126.56,11.79,-72.20,-17.87,14.33,-7.05
173285,95.08,52.22,-53.41,-13.90,11.57,-4.39
173290,71.85,79.91,-40.34,-10.19,8.82,-2.31
173295,50.27,104.07,-27.86,-6.46,5.98,-0.35
173300,17.09,140.03,-5.64,-0.10,0.98,2.86
173305,-2.18,159.23,9.30,3.92,-2.31,4.81
173310,-12.32,168.67,18.84,5.95,-4.14,5.86
173315,-26.79,181.47,42.50,8.25,-7.30,7.49
173320,-22.30,180.76,47.07,7.02,-7.56,7.55
173325,-16.84,179.60,48.65,5.97,-7.58,7.55
173330,1.05,176.19,50.06,3.54,-7.35,7.45
173335,11.73,174.26,50.97,2.31,-7.31,7.43
173340,24.82,171.93,52.70,0.94,-7.40,7.50
173346,56.79,165.91,57.81,-2.14,-7.84,8.07
173350,66.26,163.59,60.36,-3.10,-8.13,8.50
173355,73.00,161.69,62.19,-3.75,-8.40,8.99
173360,83.56,157.18,63.70,-4.72,-8.94,10.87
173365,85.93,154.89,62.83,-4.89,-9.24,12.21
173370,86.20,154.16,60.68,-4.83,-9.32,12.80
173375,86.46,152.50,56.45,-4.65,-9.21,12.91
173381,86.60,150.98,53.75,-4.53,-8.89,12.68
173385,86.86,147.69,49.67,-4.32,-7.91,12.29
173390,87.33,144.03,47.45,-4.16,-6.80,12.03
173395,87.76,140.01,45.64,-4.01,-5.69,11.87
173400,87.55,134.32,43.35,-3.78,-4.39,11.88
173405,82.11,119.66,38.84,-3.27,-2.16,12.13
173410,67.08,101.45,33.29,-2.83,-0.91,12.23
173415,57.59,91.94,29.62,-2.64,-0.81,12.09
173420,51.61,86.41,27.18,-2.52,-0.87,11.89
173425,43.74,77.31,22.30,-2.25,-1.34,11.47
173431,41.61,74.23,20.49,-2.13,-1.60,11.32
173435,39.07,69.28,17.48,-1.93,-2.07,11.07
173440,37.40,64.15,14.29,-1.70,-2.61,10.84
173445,35.72,57.36,9.92,-1.40,-3.34,10.54
173451,35.37,55.79,8.89,-1.33,-3.49,10.46
173455,34.66,52.71,6.97,-1.27,-3.67,10.32
173460,34.16,50.54,5.66,-1.26,-3.72,10.22
173465,33.45,47.54,4.31,-1.25,-3.68,10.16
173470,32.88,45.16,3.55,-1.25,-3.61,10.14
173475,31.77,41.68,2.91,-1.24,-3.48,10.13
173480,30.86,39.57,2.63,-1.20,-3.39,10.13
173485,29.56,36.94,2.39,-1.14,-3.29,10.13
173490,26.87,32.20,2.15,-0.97,-3.09,10.06
173496,25.89,30.64,2.07,-0.88,-3.03,10.01
173500,24.36,28.35,1.92,-0.71,-2.93,9.90
173505,21.91,25.57,1.51,-0.37,-2.79,9.60
173510,21.50,25.28,1.34,-0.30,-2.77,9.53
173515,20.50,25.04,0.82,-0.17,-2.74,9.37
173520,19.56,25.33,0.24,-0.13,-2.74,9.26
173525,18.87,25.73,-0.19,-0.13,-2.74,9.23
173530,18.45,26.10,-0.44,-0.15,-2.76,9.22
173535,18.09,26.65,-0.71,-0.20,-2.78,9.24
173540,17.90,27.25,-0.94,-0.26,-2.82,9.28
173546,17.81,27.79,-1.10,-0.32,-2.85,9.32
173551,17.78,28.46,-1.26,-0.39,-2.89,9.37
173555,17.82,29.70,-1.47,-0.55,-2.95,9.47
173560,17.78,30.37,-1.48,-0.66,-2.97,9.51
173565,17.07,31.13,-1.10,-0.93,-2.99,9.56
173570,16.66,30.93,-0.91,-0.96,-2.98,9.56
173575,15.80,30.25,-0.55,-0.99,-2.96,9.54
173580,14.67,29.10,-0.14,-0.99,-2.92,9.53
173585,13.22,27.55,0.32,-0.95,-2.85,9.50
173590,12.24,26.48,0.57,-0.89,-2.80,9.47
173596,11.14,25.27,0.80,-0.80,-2.73,9.42
173600,9.96,24.02,0.94,-0.67,-2.63,9.33
173605,9.26,23.38,0.86,-0.55,-2.54,9.22
173610,9.05,23.36,0.62,-0.49,-2.48,9.13
173615,9.22,24.80,-0.77,-0.42,-2.37,8.96
173620,9.39,25.38,-1.11,-0.43,-2.36,8.95
173625,9.89,27.09,-2.09,-0.50,-2.34,8.96
173630,10.60,29.57,-3.58,-0.65,-2.34,9.03
173635,11.11,31.36,-4.77,-0.79,-2.34,9.12
173640,11.34,32.18,-5.40,-0.87,-2.35,9.17
173645,11.75,33.58,-6.72,-1.06,-2.36,9.32
173650,11.87,33.97,-7.25,-1.14,-2.37,9.40
173655,11.93,33.38,-9.02,-1.72,-2.39,10.14
173661,11.91,33.26,-9.02,-1.74,-2.39,10.16
173665,11.88,33.17,-9.02,-1.75,-2.39,10.18
173670,11.84,33.04,-9.01,-1.77,-2.39,10.21
173675,11.58,32.17,-8.91,-1.81,-2.39,10.26
173680,11.24,31.15,-8.80,-1.83,-2.40,10.27
173685,10.72,29.63,-8.66,-1.83,-2.41,10.26
173690,9.90,27.17,-8.47,-1.81,-2.44,10.18
173696,8.75,23.64,-8.21,-1.75,-2.48,10.04
173700,7.91,21.01,-7.99,-1.71,-2.52,9.95
173705,5.48,13.34,-7.02,-1.58,-2.62,9.70
173710,4.94,11.65,-6.72,-1.55,-2.64,9.66
173715,2.79,4.95,-5.21,-1.45,-2.68,9.47
173720,2.24,3.22,-4.69,-1.43,-2.68,9.42
173725,1.47,0.82,-3.82,-1.41,-2.65,9.32
173730,1.28,0.21,-3.57,-1.40,-2.63,9.29
173735,1.04,-0.53,-3.23,-1.40,-2.59,9.26
173740,0.80,-1.16,-2.85,-1.40,-2.54,9.23
173746,0.62,-1.59,-2.56,-1.41,-2.50,9.21
173750,0.47,-1.77,-2.35,-1.42,-2.46,9.21
173755,0.23,-1.82,-2.06,-1.43,-2.42,9.22
173760,0.21,-1.79,-2.05,-1.43,-2.42,9.23
173765,0.14,-1.66,-2.03,-1.43,-2.45,9.24
173770,0.09,-1.55,-2.04,-1.44,-2.49,9.26
173775,0.02,-1.46,-2.04,-1.44,-2.54,9.30
173781,-0.07,-1.40,-1.99,-1.43,-2.59,9.36
173785,-0.22,-1.37,-1.85,-1.43,-2.64,9.43
173790,-0.27,-1.40,-1.78,-1.43,-2.65,9.44
173795,-0.38,-1.48,-1.61,-1.43,-2.67,9.47
173800,-0.60,-1.74,-1.27,-1.44,-2.69,9.47
173805,-0.85,-2.28,-0.82,-1.45,-2.71,9.44
173810,-0.99,-2.74,-0.54,-1.46,-2.71,9.40
173815,-1.18,-3.74,0.00,-1.43,-2.70,9.26
173820,-1.18,-4.00,0.12,-1.39,-2.68,9.20
173825,-1.15,-4.23,0.19,-1.34,-2.65,9.13
173830,-1.04,-4.41,0.19,-1.25,-2.59,9.04
173835,-0.75,-4.50,0.06,-1.12,-2.50,8.90
173840,-0.50,-4.35,-0.13,-1.06,-2.45,8.82
173846,0.04,-3.71,-0.64,-0.99,-2.37,8.69
173850,0.68,-2.40,-1.26,-0.94,-2.33,8.61
173855,1.58,0.09,-2.07,-0.92,-2.30,8.58
173860,2.25,2.34,-2.64,-0.94,-2.31,8.63
173865,3.54,6.93,-3.63,-1.03,-2.35,8.89
173870,3.85,8.02,-3.83,-1.07,-2.37,9.00
173875,4.39,9.76,-4.12,-1.19,-2.43,9.23
173880,4.93,10.89,-4.28,-1.39,-2.53,9.57
173885,5.03,10.92,-4.27,-1.45,-2.56,9.68
173890,5.08,10.61,-4.20,-1.49,-2.58,9.74
173895,5.08,9.47,-4.00,-1.52,-2.59,9.78
173900,5.04,8.50,-3.83,-1.52,-2.60,9.77
173905,4.80,4.93,-3.10,-1.47,-2.58,9.57
173910,4.64,3.47,-2.73,-1.43,-2.55,9.37
173915,4.14,0.71,-1.77,-1.28,-2.47,8.87
173920,4.02,0.31,-1.57,-1.24,-2.46,8.77
173925,3.68,-0.27,-1.06,-1.09,-2.42,8.58
173930,3.46,-0.46,-0.80,-0.96,-2.39,8.49
173935,3.14,-0.54,-0.41,-0.74,-2.36,8.41
173940,2.77,-0.13,0.08,-0.47,-2.33,8.41
173946,2.40,0.85,0.64,-0.20,-2.31,8.46
173950,2.30,1.48,0.89,-0.13,-2.31,8.51
173955,2.04,4.20,1.59,-0.02,-2.30,8.65
173960,1.74,6.58,2.07,-0.02,-2.29,8.73
173965,0.54,12.25,3.26,-0.08,-2.27,8.78
173970,-0.30,14.81,3.87,-0.13,-2.25,8.75
173975,-2.02,18.89,5.12,-0.25,-2.23,8.70
173980,-2.90,20.55,5.77,-0.32,-2.22,8.68
173985,-4.07,22.41,6.61,-0.42,-2.20,8.65
173990,-5.40,24.25,7.52,-0.57,-2.19,8.69
173995,-6.26,25.22,8.10,-0.68,-2.17,8.78
174000,-7.39,26.03,8.83,-0.83,-2.15,8.96
174005,-9.04,26.08,9.94,-1.09,-2.10,9.48
174010,-9.20,25.68,10.11,-1.12,-2.10,9.58
174015,-9.61,23.82,10.64,-1.18,-2.10,9.85
174020,-9.90,21.23,11.44,-1.20,-2.20,10.01
174025,-10.21,19.39,12.13,-1.19,-2.34,10.03
174030,-10.99,17.15,13.41,-1.14,-2.63,9.98
174035,-11.69,15.72,14.39,-1.09,-2.92,9.88
174040,-12.27,14.85,15.05,-1.04,-3.19,9.75
174046,-12.76,14.34,15.59,-0.98,-3.46,9.60
174050,-13.24,14.10,16.16,-0.89,-3.80,9.40
174055,-13.68,14.04,16.77,-0.42,-4.47,8.95
174060,-13.47,13.77,18.40,0.84,-5.23,8.36
174065,-13.18,13.46,19.63,1.24,-5.44,8.22
174070,-12.60,12.76,21.31,1.65,-5.60,8.09
174075,-11.76,12.03,23.47,2.03,-5.78,8.02
174080,-9.46,12.65,29.43,2.54,-6.25,8.00
174085,-4.08,17.35,42.86,3.07,-6.95,8.10
174090,-0.59,21.08,51.23,3.29,-7.34,8.26
174096,10.53,34.61,72.47,3.69,-8.25,8.94
174100,14.09,38.84,77.17,3.76,-8.46,9.16
174105,35.92,60.96,92.21,3.96,-9.09,10.15
174110,60.74,84.88,100.83,4.06,-9.48,11.03
174115,90.12,114.17,106.94,4.12,-9.87,11.94
174120,143.43,168.91,111.17,4.15,-10.31,13.24
174125,217.27,248.36,115.40,4.19,-10.83,14.97
174130,245.90,281.41,115.95,4.19,-11.01,15.64
174135,301.85,349.21,111.98,4.18,-11.15,16.70
174140,330.60,386.99,106.90,4.14,-11.05,16.88
174146,380.46,463.93,70.56,3.77,-9.72,15.41
174150,379.45,465.76,64.02,3.69,-9.47,14.91
174155,371.88,462.99,52.91,3.56,-9.04,13.99
174160,318.64,425.87,13.71,3.17,-7.61,11.02
174165,220.04,352.69,-36.40,2.77,-5.94,7.87
174170,88.31,251.74,-92.57,2.51,-4.25,5.87
174175,11.18,190.60,-124.53,2.49,-3.27,5.63
174180,-2.66,179.36,-130.50,2.54,-3.09,5.73
174185,-26.19,160.72,-140.08,2.75,-2.68,6.12
174190,-46.19,146.34,-146.68,3.15,-2.08,6.84
174196,-68.02,132.26,-152.44,4.02,-1.14,8.05
174200,-77.19,129.79,-152.36,4.62,-0.43,8.70
174205,-82.91,128.64,-151.69,5.10,0.18,9.17
174210,-88.46,126.63,-150.10,5.60,0.93,9.59
174215,-96.48,119.27,-144.10,6.29,2.45,9.94
174220,-97.79,115.07,-141.97,6.40,2.76,9.93
174225,-100.26,98.35,-134.50,6.57,3.47,9.80
174231,-100.81,90.63,-131.01,6.60,3.67,9.72
174235,-101.16,83.77,-127.88,6.62,3.81,9.64
174240,-101.48,66.02,-119.35,6.62,3.95,9.47
174245,-100.99,48.60,-110.27,6.54,3.88,9.35
174250,-100.71,42.37,-106.93,6.50,3.81,9.33
174255,-98.30,21.30,-95.11,6.29,3.36,9.42
174260,-94.90,3.88,-85.65,6.10,2.89,9.68
174265,-91.35,-8.48,-79.14,5.96,2.51,10.00
174270,-82.38,-34.17,-67.11,5.68,1.85,10.70
174275,-71.32,-61.07,-56.64,5.40,1.37,11.33
174280,-64.25,-78.96,-50.94,5.17,1.17,11.57
174285,-53.65,-109.93,-42.40,4.67,0.91,11.74
174290,-51.95,-115.78,-40.97,4.55,0.86,11.73
174296,-48.15,-133.48,-36.92,4.16,0.71,11.64
174300,-46.48,-144.07,-34.54,3.90,0.60,11.54
174305,-44.83,-157.06,-31.67,3.53,0.42,11.35
174311,-43.91,-176.06,-27.59,2.93,0.03,11.06
174315,-43.93,-201.77,-22.91,1.85,-0.88,10.74
174320,-44.01,-204.19,-22.57,1.73,-1.01,10.73
174325,-44.46,-214.74,-21.68,1.16,-1.60,10.74
174330,-44.77,-220.71,-21.36,0.83,-1.97,10.81
174335,-45.03,-225.91,-21.25,0.55,-2.30,10.92
174340,-45.51,-237.02,-21.45,0.00,-2.98,11.30
174346,-45.89,-243.75,-21.91,-0.33,-3.41,11.70
174350,-45.98,-245.26,-22.13,-0.40,-3.50,11.82
174355,-46.33,-249.60,-22.95,-0.62,-3.66,12.18
174360,-46.67,-251.74,-23.72,-0.74,-3.71,12.38
174366,-47.10,-254.08,-24.72,-0.86,-3.75,12.60
174370,-48.58,-262.19,-27.97,-1.18,-3.76,13.21
174375,-49.88,-271.27,-30.02,-1.43,-3.68,13.85
174380,-50.18,-273.75,-30.22,-1.49,-3.63,14.03
174385,-50.83,-279.74,-29.81,-1.63,-3.47,14.56
174390,-51.06,-282.46,-29.07,-1.70,-3.36,14.85
174396,-51.31,-285.70,-27.71,-1.78,-3.17,15.26
174400,-51.83,-289.66,-25.26,-1.90,-2.84,15.92
174405,-53.92,-294.30,-20.16,-2.12,-2.11,17.30
174410,-54.53,-294.70,-19.34,-2.15,-1.99,17.53
174415,-62.17,-295.45,-12.74,-2.47,-1.24,19.41
174420,-64.41,-295.15,-11.02,-2.56,-1.13,19.85
174425,-70.14,-293.89,-6.22,-2.84,-0.93,20.92
174430,-77.87,-290.87,1.58,-3.33,-0.75,22.25
174435,-87.05,-285.28,14.22,-4.24,-0.61,23.75
174440,-91.66,-280.63,24.13,-5.03,-0.54,24.47
174446,-94.26,-278.13,30.86,-5.69,-0.49,24.79
174450,-96.55,-275.99,37.28,-6.48,-0.43,25.03
174455,-97.15,-274.49,41.34,-7.11,-0.40,25.12
174460,-96.55,-273.38,44.86,-7.70,-0.36,25.06
174465,-94.37,-271.96,51.06,-8.72,-0.28,24.82
174470,-84.72,-270.25,63.94,-12.36,0.13,24.17
174475,-78.69,-269.92,67.49,-13.77,0.34,23.66
174480,-74.38,-269.83,69.46,-14.59,0.48,23.22
174485,-68.45,-269.88,71.87,-15.60,0.66,22.49
174490,-64.18,-269.99,73.13,-16.26,0.78,21.92
174495,-58.46,-270.13,74.33,-17.14,0.94,21.17
174500,-44.79,-270.44,75.67,-18.81,1.25,18.35
174505,-25.76,-270.90,76.85,-20.48,1.63,13.18
174511,-20.59,-270.68,76.93,-20.85,1.75,11.61
174515,-13.55,-269.20,75.87,-21.35,1.93,9.30
174520,-5.22,-265.56,72.65,-21.89,2.14,6.52
174525,1.88,-261.73,68.89,-22.30,2.29,4.34
174530,15.06,-248.50,52.48,-22.88,2.52,0.41
174535,23.59,-231.81,33.53,-23.47,2.67,-1.84
174540,25.99,-225.16,26.01,-23.62,2.60,-2.43
174546,27.73,-218.63,18.64,-23.67,2.41,-2.94
174550,28.48,-206.05,5.52,-23.46,1.90,-3.57
174555,27.21,-193.48,-6.26,-23.13,1.44,-3.91
174560,23.05,-145.49,-31.87,-21.19,0.23,-4.18
174565,17.21,-66.79,-59.07,-16.82,-1.00,-4.40
174570,16.42,-57.68,-61.93,-16.12,-1.10,-4.38
174575,15.03,-43.01,-66.09,-14.85,-1.27,-4.24
174580,12.46,-15.08,-67.99,-12.33,-1.38,-3.66
174585,10.42,11.97,-64.49,-10.27,-1.31,-3.09
174590,6.29,91.63,-52.74,-3.62,-0.96,-0.36
174595,3.14,136.81,-37.10,0.58,-0.73,3.33
174600,3.12,144.96,-31.96,1.36,-0.70,4.32
174605,6.73,165.21,-15.81,2.50,-0.78,7.28
174611,9.90,174.69,-6.03,2.34,-0.90,9.19
174615,24.19,189.06,30.54,1.76,-1.39,15.53
174620,52.22,183.68,66.32,-0.75,-2.37,19.98
174625,70.73,168.52,72.35,-2.26,-3.49,19.87
174630,72.32,166.95,71.98,-2.36,-3.62,19.79
174635,76.55,160.59,68.80,-2.60,-4.04,19.41
174640,76.89,158.89,67.66,-2.61,-4.11,19.32
174645,77.07,150.17,59.41,-2.53,-4.28,18.94
174650,75.99,140.90,51.40,-2.45,-4.20,18.64
174655,75.01,136.92,48.45,-2.42,-4.06,18.54
174660,72.59,129.19,45.24,-2.34,-3.73,18.38
174665,69.78,123.01,44.03,-2.18,-3.45,18.29
174670,65.04,116.49,43.33,-1.87,-3.10,18.15
174675,56.68,110.82,43.19,-1.08,-2.72,17.80
174680,46.27,106.70,42.45,-0.28,-2.31,16.92
174685,42.32,105.64,41.71,-0.05,-2.17,16.36
174690,38.09,103.93,40.29,-0.01,-2.05,15.48
174695,35.17,101.51,37.21,-0.36,-1.99,14.32
174700,35.16,98.71,32.93,-0.76,-1.97,13.22
174705,38.53,93.49,25.88,-1.17,-2.00,12.04
174710,44.28,86.21,16.77,-1.25,-1.96,10.86
174715,46.15,84.12,14.29,-1.18,-1.92,10.60
174720,49.23,80.36,10.08,-1.05,-1.84,10.22
174725,52.26,75.70,5.23,-0.88,-1.73,9.83
174730,53.19,72.71,2.45,-0.82,-1.69,9.74
174735,52.76,69.46,-0.25,-0.84,-1.74,9.76
174740,50.60,66.34,-2.22,-0.89,-1.83,9.87
174746,48.61,64.92,-3.03,-0.93,-1.90,9.95
174750,45.08,62.68,-4.10,-0.99,-1.99,10.05
174755,39.48,59.21,-5.51,-1.06,-2.14,10.16
174762,34.98,56.37,-6.33,-1.11,-2.25,10.22
174765,30.45,53.42,-6.85,-1.17,-2.37,10.25
174770,26.12,50.08,-7.02,-1.22,-2.45,10.27
174775,23.11,47.33,-6.84,-1.26,-2.48,10.27
174780,20.48,44.46,-6.50,-1.29,-2.51,10.27
174785,17.18,39.73,-5.88,-1.31,-2.54,10.26
174790,14.11,34.47,-5.20,-1.32,-2.57,10.24
174796,11.49,29.33,-4.56,-1.31,-2.60,10.20
174800,8.74,23.70,-3.85,-1.29,-2.62,10.14
174805,7.35,20.82,-3.48,-1.27,-2.61,10.09
174810,5.83,17.67,-3.05,-1.24,-2.57,10.03
174815,3.87,13.69,-2.40,-1.15,-2.50,9.93
174820,2.74,11.47,-1.97,-1.08,-2.44,9.86
174825,2.08,10.25,-1.70,-1.01,-2.41,9.82
174830,1.46,9.39,-1.51,-0.95,-2.37,9.79
174836,0.89,8.80,-1.40,-0.89,-2.32,9.75
174840,0.54,8.50,-1.37,-0.86,-2.28,9.73
174845,-0.06,8.07,-1.39,-0.84,-2.21,9.66
174850,-0.46,7.68,-1.40,-0.84,-2.17,9.59
174855,-0.60,7.45,-1.41,-0.85,-2.17,9.54
174861,-0.68,7.18,-1.41,-0.88,-2.20,9.49
174865,-0.68,6.95,-1.36,-0.91,-2.25,9.44
174870,-0.62,6.80,-1.28,-0.95,-2.31,9.40
174875,-0.47,6.69,-1.15,-1.01,-2.37,9.35
174880,-0.18,6.59,-0.96,-1.08,-2.43,9.29
174885,-0.03,6.56,-0.87,-1.10,-2.45,9.27
174890,0.19,6.51,-0.77,-1.13,-2.46,9.25
174896,0.40,6.34,-0.70,-1.15,-2.47,9.24
174900,0.55,6.16,-0.67,-1.17,-2.47,9.24
174906,0.76,5.88,-0.66,-1.19,-2.46,9.24
174910,1.16,5.37,-0.65,-1.21,-2.45,9.25
174915,1.40,5.13,-0.65,-1.21,-2.45,9.27
174920,1.72,4.86,-0.65,-1.21,-2.44,9.30
174925,2.12,4.58,-0.63,-1.19,-2.43,9.36
174930,2.32,4.46,-0.61,-1.19,-2.43,9.41
174935,2.43,4.39,-0.60,-1.19,-2.43,9.44
174940,2.49,4.29,-0.58,-1.21,-2.42,9.48
174945,2.50,4.21,-0.57,-1.22,-2.42,9.51
174950,2.43,4.10,-0.56,-1.23,-2.41,9.52
174955,2.25,3.84,-0.58,-1.24,-2.40,9.53
174961,2.01,3.46,-0.62,-1.25,-2.39,9.53
174966,1.83,3.18,-0.69,-1.25,-2.39,9.52
174970,1.57,2.78,-0.81,-1.25,-2.39,9.50
174975,1.37,2.51,-0.92,-1.25,-2.39,9.49
174980,1.16,2.21,-1.06,-1.25,-2.41,9.46
174985,0.89,1.86,-1.24,-1.26,-2.43,9.40
174990,0.71,1.56,-1.36,-1.26,-2.46,9.34
174995,0.64,1.42,-1.41,-1.26,-2.48,9.31
175000,0.52,1.16,-1.45,-1.26,-2.49,9.25
175005,0.44,0.97,-1.47,-1.26,-2.49,9.21
175011,0.31,0.68,-1.48,-1.27,-2.48,9.16
175015,0.20,0.51,-1.47,-1.29,-2.46,9.14
175020,0.04,0.31,-1.46,-1.30,-2.42,9.14
175025,-0.03,0.24,-1.45,-1.31,-2.41,9.15
175030,-0.15,0.12,-1.44,-1.32,-2.39,9.19
175035,-0.37,-0.15,-1.43,-1.33,-2.37,9.26
175040,-0.57,-0.45,-1.43,-1.33,-2.36,9.33
175046,-0.76,-0.77,-1.46,-1.33,-2.35,9.40
175050,-1.07,-1.23,-1.48,-1.34,-2.36,9.48
175055,-1.21,-1.39,-1.48,-1.34,-2.36,9.50
175060,-1.44,-1.65,-1.47,-1.34,-2.36,9.53
175065,-1.94,-2.13,-1.36,-1.33,-2.38,9.56
175070,-2.41,-2.55,-1.20,-1.31,-2.42,9.56
175075,-2.75,-2.84,-1.04,-1.30,-2.46,9.57
175080,-3.14,-3.15,-0.83,-1.26,-2.52,9.56
175085,-3.28,-3.24,-0.74,-1.25,-2.54,9.56
175090,-3.44,-3.29,-0.61,-1.22,-2.57,9.55
175095,-3.60,-3.22,-0.44,-1.19,-2.60,9.51
175100,-3.71,-3.09,-0.31,-1.16,-2.60,9.47
175105,-3.82,-2.86,-0.15,-1.13,-2.60,9.41
175111,-3.97,-2.48,0.05,-1.10,-2.56,9.31
175115,-4.00,-2.37,0.10,-1.10,-2.54,9.28
175120,-4.04,-2.17,0.16,-1.10,-2.50,9.25
175125,-4.05,-1.78,0.20,-1.11,-2.45,9.24
175130,-4.01,-1.35,0.18,-1.11,-2.42,9.25
175135,-3.88,-0.80,0.07,-1.12,-2.39,9.26
175140,-3.61,-0.12,-0.17,-1.13,-2.37,9.28
175146,-3.48,0.12,-0.30,-1.13,-2.36,9.28
175150,-3.18,0.47,-0.57,-1.14,-2.35,9.28
175155,-2.60,0.83,-1.08,-1.14,-2.36,9.27
175160,-2.51,0.86,-1.14,-1.14,-2.37,9.27
175166,-2.42,0.89,-1.21,-1.14,-2.38,9.27
175170,-2.11,1.04,-1.40,-1.13,-2.42,9.26
175175,-2.02,1.11,-1.42,-1.12,-2.44,9.26
175180,-1.95,1.23,-1.41,-1.10,-2.45,9.27
175185,-1.89,1.38,-1.37,-1.07,-2.46,9.27
175190,-1.84,1.74,-1.19,-1.02,-2.46,9.29
175195,-1.84,1.89,-1.12,-1.01,-2.46,9.29
175200,-1.84,3.15,-0.59,-0.93,-2.44,9.31
175205,-1.86,3.96,-0.38,-0.92,-2.43,9.28
175211,-1.88,5.06,-0.14,-0.91,-2.42,9.21
175215,-1.90,6.06,0.04,-0.91,-2.42,9.13
175220,-1.92,7.92,0.31,-0.92,-2.42,8.93
175225,-1.93,8.39,0.40,-0.92,-2.42,8.88
175230,-1.95,12.21,1.24,-0.96,-2.52,8.58
175236,-1.96,13.51,1.61,-0.98,-2.60,8.53
175240,-1.99,14.64,1.97,-0.99,-2.69,8.53
175246,-2.07,15.82,2.38,-1.00,-2.82,8.64
175250,-2.24,16.87,2.79,-0.99,-2.90,8.90
175255,-2.27,16.95,2.83,-0.99,-2.89,8.95
175261,-2.42,17.03,2.87,-0.99,-2.85,9.09
175265,-2.48,17.00,2.87,-0.99,-2.83,9.11
175270,-2.61,16.93,2.86,-0.99,-2.78,9.12
175275,-2.90,16.75,2.86,-1.00,-2.70,9.05
175280,-3.57,16.55,2.89,-1.01,-2.62,8.92
175285,-4.53,16.43,3.35,-1.05,-2.58,8.79
175290,-5.91,16.28,4.22,-1.13,-2.55,8.66
175296,-6.87,16.17,4.94,-1.20,-2.54,8.61
175300,-7.92,16.05,5.82,-1.28,-2.53,8.56
175305,-10.39,15.72,8.09,-1.52,-2.54,8.50
175310,-11.59,15.51,9.38,-1.67,-2.57,8.50
175315,-13.70,15.08,11.92,-1.98,-2.66,8.53
175320,-15.56,14.55,14.94,-2.39,-3.00,8.68
175325,-15.76,14.50,15.47,-2.46,-3.10,8.72
175330,-15.76,14.51,15.87,-2.48,-3.20,8.74
175335,-15.39,14.70,16.99,-2.37,-3.33,8.70
175340,-15.08,14.89,17.96,-2.15,-3.41,8.64
175346,-14.97,14.93,18.70,-1.84,-3.44,8.57
175350,-14.75,15.06,20.40,-1.19,-3.52,8.44
175355,-14.64,15.20,21.27,-0.98,-3.60,8.40
175361,-14.42,15.57,23.22,-0.62,-3.77,8.34
175365,-13.39,17.08,29.90,0.23,-4.35,8.18
175370,-11.50,19.16,38.39,1.03,-5.35,8.07
175375,-9.99,20.12,42.72,1.36,-6.02,8.11
175380,-4.31,23.11,48.43,1.72,-7.50,8.33
175385,2.84,26.47,49.89,1.81,-8.27,8.56
175390,12.68,31.02,50.83,1.86,-9.08,8.86
175395,40.67,44.71,51.31,1.85,-10.51,9.51
175400,90.34,71.12,49.91,1.84,-11.68,10.22
175405,138.48,97.65,47.51,1.85,-12.31,10.75
175410,322.08,203.75,32.69,1.95,-13.20,12.25
175415,385.01,242.52,25.94,2.06,-12.93,12.67
175420,450.56,284.53,18.48,2.13,-12.32,13.17
175425,558.52,359.96,5.78,2.01,-10.07,14.26
175430,605.91,394.47,-2.79,1.83,-8.58,14.99
175435,629.89,413.74,-9.50,1.57,-7.41,15.60
175440,640.91,425.88,-20.56,1.35,-6.21,16.35
175445,624.77,427.54,-39.84,1.31,-5.39,17.02
175450,591.02,422.71,-59.21,1.34,-4.94,17.44
175455,466.62,390.95,-99.04,1.62,-4.51,17.74
175461,343.52,351.67,-127.92,1.84,-4.35,17.63
175465,232.32,310.65,-148.24,1.95,-4.32,17.11
175470,88.17,250.70,-170.46,2.10,-4.25,15.78
175475,-0.52,206.02,-182.51,2.21,-4.10,14.18
175480,-38.73,183.22,-187.88,2.29,-3.94,13.13
175485,-89.15,147.49,-196.65,2.60,-2.92,10.76
175490,-95.83,140.78,-199.06,2.77,-2.15,10.00
175495,-98.34,137.85,-200.37,2.90,-1.54,9.63
175500,-101.20,132.63,-201.90,3.16,-0.20,9.24
175505,-101.70,128.13,-202.10,3.42,1.06,9.19
175511,-102.13,124.49,-201.79,3.65,2.06,9.26
175515,-104.03,112.31,-199.87,4.30,4.19,9.75
175520,-105.80,101.19,-197.48,4.87,5.52,10.22
175525,-107.11,94.46,-195.37,5.24,6.16,10.52
175530,-109.06,84.80,-191.95,5.69,6.71,10.88
175535,-111.66,73.10,-185.17,6.10,7.09,11.21
175540,-113.43,65.02,-178.96,6.31,7.23,11.39
175545,-117.57,44.33,-159.44,6.64,7.25,11.73
175550,-121.92,16.76,-130.12,6.88,7.12,12.01
175555,-123.72,2.13,-113.07,6.89,6.88,12.10
175560,-125.07,-13.00,-96.17,6.78,6.51,12.15
175565,-126.21,-43.15,-70.57,6.42,5.68,12.18
175570,-126.73,-67.22,-55.19,6.04,4.96,12.19
175575,-126.21,-76.98,-50.01,5.86,4.65,12.18
175580,-124.06,-92.01,-44.24,5.55,4.20,12.16
175585,-121.02,-104.36,-40.98,5.25,3.86,12.11
175590,-108.20,-137.43,-33.88,4.30,2.97,11.74
175595,-103.35,-149.21,-31.68,3.93,2.65,11.55
175600,-98.73,-163.21,-28.72,3.48,2.25,11.36
175605,-95.93,-172.51,-26.47,3.19,1.97,11.24
175611,-92.17,-185.84,-22.98,2.75,1.55,11.07
175615,-87.80,-204.72,-18.12,2.13,0.92,10.87
175620,-83.25,-239.87,-8.06,0.88,-0.48,10.66
175625,-83.04,-245.75,-6.48,0.64,-0.77,10.65
175630,-82.93,-250.97,-5.93,0.35,-1.01,10.66
175635,-82.93,-253.51,-6.11,0.19,-1.12,10.67
175640,-82.87,-256.85,-6.96,-0.02,-1.27,10.70
175645,-81.90,-263.39,-10.29,-0.47,-1.59,10.80
175650,-78.91,-273.07,-18.08,-1.13,-2.20,11.11
175655,-78.06,-275.29,-20.18,-1.27,-2.38,11.20
175660,-75.09,-282.79,-27.90,-1.70,-3.03,11.56
175665,-74.70,-283.72,-28.98,-1.74,-3.12,11.60
175670,-73.36,-287.05,-33.06,-1.88,-3.41,11.82
175675,-72.61,-289.42,-36.03,-1.94,-3.43,12.06
175680,-72.59,-291.15,-37.82,-2.00,-2.84,12.51
175685,-72.67,-291.30,-37.92,-2.01,-2.70,12.59
175690,-73.25,-291.94,-37.93,-2.05,-2.02,13.02
175695,-73.95,-292.34,-37.27,-2.10,-1.54,13.41
175700,-75.04,-292.81,-35.91,-2.19,-0.99,13.96
175705,-76.31,-293.42,-34.14,-2.28,-0.53,14.63
175711,-79.46,-295.06,-27.13,-2.55,0.12,16.75
175715,-80.64,-295.77,-23.15,-2.68,0.27,17.79
175720,-82.46,-296.77,-14.62,-2.94,0.53,19.62
175725,-82.88,-296.89,-10.97,-3.02,0.59,20.23
175730,-83.37,-296.78,-7.81,-3.13,0.69,20.84
175735,-84.40,-296.24,-3.93,-3.51,0.96,21.82
175740,-86.20,-295.36,0.43,-4.26,1.34,22.92
175745,-87.88,-294.81,3.05,-4.87,1.58,23.55
175750,-93.00,-293.26,11.87,-6.63,2.10,24.84
175755,-93.72,-293.05,13.50,-6.87,2.15,24.97
175760,-97.57,-291.89,23.69,-8.18,2.39,25.53
175765,-102.71,-290.08,42.31,-10.34,2.60,26.00
175770,-106.63,-288.73,62.57,-12.70,2.67,26.15
175775,-106.49,-288.61,66.06,-13.14,2.67,26.07
175780,-104.46,-288.51,72.80,-14.24,2.65,25.71
175785,-95.03,-288.61,78.22,-15.52,2.62,24.77
175790,-83.70,-288.66,80.83,-16.36,2.60,23.70
175795,-70.70,-288.58,82.18,-16.96,2.64,22.41
175800,-46.22,-288.29,84.10,-17.85,2.79,19.87
175805,-29.13,-287.78,86.01,-18.51,2.94,17.94
175810,4.33,-284.63,91.11,-19.95,3.42,13.53
175815,21.89,-281.05,95.78,-21.21,3.74,10.82
175820,41.58,-271.23,105.61,-23.53,4.20,6.33
175826,44.75,-266.33,109.02,-24.34,4.31,4.84
175830,48.74,-255.11,110.47,-25.49,4.41,1.92
175835,51.54,-237.61,102.04,-26.37,4.44,-1.60
175840,53.94,-224.00,91.38,-26.85,4.44,-3.73
175845,59.30,-206.18,70.78,-27.25,4.30,-5.92
175850,64.55,-191.66,51.09,-27.43,4.06,-7.33
175855,74.51,-162.05,14.63,-27.56,3.43,-9.23
175861,83.74,-132.65,-15.43,-27.05,2.57,-10.14
175865,84.79,-34.91,-58.68,-22.09,0.00,-9.14
175870,79.14,-5.12,-62.25,-19.90,-0.70,-8.14
175875,56.62,53.67,-63.44,-14.84,-1.98,-5.08
175880,36.50,93.21,-61.14,-11.12,-2.83,-2.56
175885,8.99,138.22,-54.54,-6.70,-3.79,0.78
175890,-10.44,166.27,-47.76,-3.86,-4.31,3.02
175895,-16.86,176.25,-44.29,-2.87,-4.30,3.72
175900,-23.55,188.52,-38.66,-1.69,-3.87,4.54
175905,-26.03,200.82,-27.42,-0.67,-2.02,5.49
175910,-24.92,203.66,-22.62,-0.47,-0.85,5.73
175915,-21.91,204.76,-15.70,-0.43,0.74,6.13
175920,-6.27,202.91,5.83,-0.83,4.86,7.90
175925,1.36,201.51,16.33,-1.09,5.57,8.50
175930,9.44,199.83,27.26,-1.38,4.91,9.07
175935,19.84,197.84,42.47,-1.79,2.28,9.90
175940,29.52,195.52,56.91,-2.20,-1.32,10.86
175945,36.66,192.29,65.74,-2.47,-4.56,12.33
175950,44.50,185.33,73.50,-2.76,-8.72,15.05
175955,46.53,181.92,74.63,-2.79,-9.78,15.99
175961,49.20,175.63,74.57,-2.82,-10.74,17.32
175965,52.22,163.31,70.33,-2.97,-10.62,18.75
175970,54.23,145.16,61.34,-3.24,-9.96,19.43
175975,54.55,138.81,57.47,-3.36,-9.47,19.15
175980,54.18,131.06,53.14,-3.44,-8.69,18.37
175985,53.47,126.17,51.20,-3.37,-8.14,17.83
175990,52.28,121.89,49.67,-3.18,-7.60,17.31
175996,49.57,115.80,47.81,-2.78,-6.63,16.47
176000,44.94,110.63,46.88,-2.21,-5.33,15.59
176005,40.27,106.37,45.97,-1.66,-4.10,14.65
176010,30.87,98.50,39.85,-0.57,-1.70,11.93
176015,28.57,94.02,30.67,-0.02,-0.87,10.09
176020,28.58,91.95,23.59,0.18,-0.67,9.10
176025,30.74,90.27,15.20,0.26,-0.69,8.26
176031,33.36,89.66,9.54,0.18,-0.85,7.94
176036,35.33,89.53,6.32,0.05,-1.01,7.85
176040,40.85,89.32,0.07,-0.41,-1.51,7.77
176046,42.36,89.34,-0.68,-0.56,-1.66,7.81
176050,45.66,89.74,-2.13,-0.94,-2.02,8.34
176055,46.39,89.78,-2.37,-1.03,-2.10,8.50
176061,49.20,89.21,-2.96,-1.38,-2.39,9.35
176066,43.67,73.23,-6.25,-1.70,-2.63,10.85
176070,38.35,65.12,-7.29,-1.66,-2.65,10.97
176075,33.77,58.58,-7.95,-1.62,-2.65,11.01
176080,28.61,51.75,-8.37,-1.54,-2.65,10.99
176085,26.42,48.74,-8.38,-1.51,-2.65,10.96
176090,20.72,40.35,-8.09,-1.41,-2.63,10.85
176096,12.81,27.63,-6.83,-1.24,-2.59,10.60
176101,9.73,21.82,-5.34,-1.15,-2.55,10.43
176105,6.01,13.63,-2.34,-1.08,-2.33,10.13
176111,4.76,10.74,-1.26,-1.06,-2.21,9.98
176115,4.35,9.79,-0.98,-1.06,-2.17,9.93
176120,4.13,9.31,-0.86,-1.05,-2.15,9.90
176125,3.83,8.64,-0.75,-1.04,-2.13,9.86
176130,2.93,6.75,-0.63,-1.00,-2.17,9.72
176135,2.64,6.13,-0.77,-0.97,-2.22,9.66
176140,2.39,5.59,-1.05,-0.93,-2.30,9.61
176145,2.23,5.16,-1.32,-0.90,-2.35,9.58
176150,2.18,5.03,-1.44,-0.88,-2.37,9.56
176155,2.10,4.79,-1.61,-0.87,-2.40,9.55
176160,1.78,3.97,-1.98,-0.85,-2.43,9.54
176165,1.60,3.55,-2.01,-0.86,-2.43,9.54
176170,1.35,2.95,-1.91,-0.90,-2.43,9.52
176176,1.26,2.73,-1.82,-0.92,-2.44,9.51
176180,1.19,2.54,-1.71,-0.95,-2.44,9.50
176185,1.05,2.14,-1.46,-1.00,-2.45,9.47
176190,0.97,1.91,-1.30,-1.03,-2.45,9.45
176195,0.86,1.56,-1.03,-1.07,-2.46,9.42
176200,0.51,0.76,-0.34,-1.13,-2.47,9.36
176205,0.37,0.60,-0.17,-1.14,-2.48,9.35
176211,0.30,0.53,-0.09,-1.14,-2.48,9.35
176215,0.13,0.43,0.04,-1.13,-2.47,9.34
176220,-0.20,0.31,0.20,-1.12,-2.45,9.31
176225,-0.37,0.28,0.27,-1.11,-2.43,9.28
176230,-0.54,0.25,0.33,-1.09,-2.39,9.24
176235,-0.80,0.21,0.46,-1.07,-2.36,9.20
176240,-1.00,0.17,0.55,-1.05,-2.33,9.18
176245,-1.31,0.11,0.67,-1.04,-2.31,9.16
176250,-2.21,-0.10,0.93,-1.01,-2.29,9.14
176255,-2.68,-0.21,1.02,-0.99,-2.29,9.13
176260,-3.27,-0.35,1.10,-0.96,-2.29,9.12
176265,-3.79,-0.46,1.16,-0.92,-2.31,9.13
176270,-4.07,-0.51,1.19,-0.89,-2.32,9.13
176275,-4.30,-0.56,1.23,-0.86,-2.34,9.14
176280,-4.68,-0.54,1.35,-0.79,-2.38,9.15
176285,-4.81,-0.47,1.41,-0.76,-2.40,9.15
176290,-4.87,-0.26,1.45,-0.75,-2.41,9.14
176295,-4.94,0.66,1.47,-0.77,-2.44,9.11
176300,-4.97,3.05,1.39,-0.84,-2.46,9.10
176305,-4.96,4.05,1.35,-0.86,-2.47,9.11
176310,-4.94,5.37,1.29,-0.89,-2.49,9.15
176315,-4.88,7.60,1.12,-0.94,-2.51,9.23
176320,-4.83,8.84,0.97,-0.97,-2.52,9.28
176326,-4.79,9.69,0.80,-1.00,-2.53,9.33
176330,-4.78,10.24,0.64,-1.02,-2.54,9.36
176335,-4.77,10.42,0.58,-1.02,-2.54,9.37
176340,-4.72,11.07,0.22,-1.06,-2.55,9.43
176345,-4.66,11.27,-0.08,-1.08,-2.55,9.47
176350,-4.58,11.37,-0.39,-1.11,-2.56,9.50
176355,-4.36,11.11,-0.77,-1.13,-2.57,9.49
176360,-4.20,10.61,-0.89,-1.14,-2.57,9.47
176365,-4.11,10.32,-0.91,-1.14,-2.57,9.46
176370,-3.73,8.36,-0.82,-1.12,-2.57,9.38
176375,-3.71,8.17,-0.79,-1.11,-2.57,9.38
176380,-3.64,7.05,-0.52,-1.09,-2.53,9.36
176385,-3.64,6.94,-0.49,-1.09,-2.52,9.35
176390,-3.63,6.72,-0.41,-1.09,-2.50,9.35
176395,-3.63,6.40,-0.29,-1.09,-2.46,9.35
176400,-3.64,6.09,-0.21,-1.14,-2.39,9.36
176405,-3.60,5.97,-0.24,-1.18,-2.37,9.36
176410,-3.40,5.79,-0.35,-1.23,-2.35,9.37
176415,-3.31,5.69,-0.39,-1.24,-2.35,9.38
176420,-3.11,5.45,-0.46,-1.26,-2.35,9.38
176425,-2.56,4.41,-0.64,-1.28,-2.37,9.39
176430,-2.46,4.16,-0.67,-1.28,-2.38,9.39
176435,-2.42,4.06,-0.68,-1.28,-2.38,9.38
176440,-2.19,3.42,-0.77,-1.27,-2.40,9.38
176445,-2.01,2.81,-0.85,-1.26,-2.41,9.36
176450,-1.80,2.24,-0.95,-1.24,-2.43,9.34
176455,-1.32,1.47,-1.19,-1.16,-2.43,9.30
176461,-1.10,1.29,-1.30,-1.13,-2.41,9.29
176465,-0.89,1.20,-1.42,-1.10,-2.37,9.29
176470,-0.48,1.20,-1.60,-1.11,-2.28,9.27
176475,-0.11,1.25,-1.73,-1.12,-2.18,9.26
176480,0.05,1.34,-1.75,-1.13,-2.13,9.26
176485,0.25,1.50,-1.78,-1.15,-2.08,9.25
176490,0.37,1.61,-1.80,-1.16,-2.07,9.25
176495,0.49,1.76,-1.81,-1.17,-2.05,9.25
176500,0.59,2.03,-1.80,-1.18,-2.03,9.25
176505,0.49,3.10,-1.42,-1.09,-2.02,9.25
176510,0.33,3.29,-1.25,-1.03,-2.02,9.25
176515,0.12,3.74,-1.01,-0.96,-2.02,9.25
176520,-0.62,5.84,-0.20,-0.71,-2.02,9.21
176526,-0.83,6.57,0.04,-0.66,-2.02,9.18
176530,-1.09,7.46,0.33,-0.60,-2.02,9.14
176535,-1.32,8.37,0.61,-0.55,-2.04,9.09
176540,-1.44,8.91,0.77,-0.53,-2.05,9.06
176545,-1.56,9.48,0.94,-0.51,-2.07,9.02
176550,-1.74,10.29,1.18,-0.49,-2.13,8.97
176555,-1.88,11.02,1.38,-0.48,-2.19,8.94
176561,-2.06,12.13,1.63,-0.49,-2.29,8.90
176565,-2.66,15.25,2.44,-0.44,-2.41,8.86
176570,-2.77,15.74,2.60,-0.43,-2.42,8.86
176577,-2.99,16.62,2.92,-0.38,-2.44,8.86
176580,-3.63,18.73,3.94,-0.17,-2.50,8.87
176585,-4.01,19.21,4.45,-0.10,-2.53,8.88
176590,-4.64,19.57,5.12,-0.04,-2.58,8.89
176595,-5.91,19.76,6.18,-0.14,-2.70,8.91
176600,-7.62,19.91,7.37,-0.43,-2.92,8.92
176605,-8.45,20.14,7.91,-0.59,-3.09,8.93
176611,-9.39,20.56,8.46,-0.80,-3.35,8.93
176615,-10.17,21.05,8.82,-0.98,-3.65,8.93
176620,-10.60,21.56,9.02,-1.08,-3.89,8.93
176625,-10.65,22.38,9.07,-1.13,-4.07,8.93
176630,-10.14,23.85,9.08,-1.15,-4.20,8.91
176635,-9.43,25.30,9.11,-1.15,-4.28,8.89
176640,-8.67,26.46,9.15,-1.13,-4.30,8.87
176645,-7.45,28.17,9.20,-1.10,-4.33,8.84
176650,-5.07,31.76,9.54,-1.04,-4.50,8.81
176655,-0.61,37.60,12.48,-0.71,-5.08,8.85
176660,1.84,40.13,16.51,-0.29,-5.47,8.96
176665,6.47,43.06,25.03,0.57,-6.18,9.14
176671,9.91,44.05,31.69,1.18,-6.65,9.29
176675,19.41,47.24,46.87,2.43,-7.86,9.83
176680,38.40,54.74,65.95,3.72,-9.70,10.93
176685,57.01,64.40,74.82,4.23,-10.72,11.81
176690,107.33,100.12,86.02,4.82,-12.31,13.60
176695,146.07,131.17,88.56,4.99,-12.82,14.41
176700,188.73,167.17,90.20,5.12,-13.21,15.12
176705,226.11,201.01,91.03,5.18,-13.45,15.72
176710,264.93,238.00,89.55,5.20,-13.47,16.18
176715,290.16,262.73,86.84,5.20,-13.32,16.31
176720,379.85,358.30,61.01,5.36,-11.41,15.54
176725,396.96,377.52,43.74,5.46,-10.29,14.58
176730,372.94,374.59,-1.59,5.75,-7.64,10.95
176735,323.73,351.19,-32.04,5.89,-6.18,8.45
176740,237.06,301.61,-62.11,5.98,-4.96,6.07
176745,114.11,230.02,-96.29,6.15,-3.97,4.16
176751,23.70,176.38,-117.26,6.31,-3.54,3.60
176755,-27.01,144.09,-128.81,6.54,-3.44,4.08
176760,-81.13,105.84,-139.30,7.04,-3.17,6.31
176765,-85.98,101.77,-140.16,7.11,-3.10,6.81
176770,-91.66,95.30,-141.70,7.19,-2.95,7.66
176776,-94.74,90.11,-143.21,7.25,-2.66,8.52
176780,-97.42,83.81,-145.00,7.28,-1.98,9.64
176785,-98.08,70.56,-146.93,7.25,-0.86,10.29
176790,-98.57,60.40,-147.14,7.21,-0.33,10.27
176795,-99.03,51.26,-146.75,7.16,0.02,10.18
176800,-99.87,35.36,-145.64,7.07,0.47,9.95
176805,-100.71,20.71,-144.23,6.96,0.78,9.72
176810,-101.40,6.22,-142.49,6.84,0.99,9.53
176816,-102.08,-19.59,-137.99,6.60,1.12,9.28
176820,-101.12,-52.48,-129.59,6.15,0.80,9.37
176826,-100.72,-56.33,-128.48,6.09,0.73,9.42
176831,-96.16,-78.56,-121.86,5.62,0.27,10.03
176835,-89.39,-98.70,-116.19,5.14,-0.08,10.76
176841,-86.92,-104.10,-114.78,5.01,-0.16,10.97
176845,-82.95,-110.80,-113.07,4.84,-0.27,11.28
176850,-60.52,-152.75,-105.02,3.83,-0.55,12.31
176856,-58.01,-158.12,-104.17,3.69,-0.56,12.35
176861,-53.15,-169.05,-102.65,3.39,-0.58,12.42
176865,-46.26,-189.92,-99.34,2.76,-0.59,12.44
176871,-45.41,-193.33,-98.69,2.64,-0.60,12.42
176875,-43.36,-202.40,-96.81,2.31,-0.60,12.39
176880,-42.11,-213.72,-93.54,1.82,-0.61,12.37
176885,-41.67,-221.76,-89.99,1.37,-0.61,12.37
176891,-41.54,-223.33,-88.97,1.28,-0.61,12.38
176896,-41.04,-227.35,-85.20,1.01,-0.61,12.41
176900,-40.63,-230.16,-81.49,0.82,-0.61,12.48
176905,-40.23,-232.52,-77.90,0.67,-0.60,12.55
176910,-39.53,-236.47,-71.94,0.43,-0.60,12.67
176915,-38.70,-239.48,-66.84,0.29,-0.59,12.78
176921,-37.59,-242.43,-61.10,0.16,-0.56,12.93
176926,-35.86,-246.69,-52.49,-0.01,-0.49,13.23
176931,-34.46,-250.32,-45.39,-0.16,-0.43,13.53
176935,-29.58,-265.93,-20.83,-0.69,-0.04,15.19
176940,-27.60,-273.07,-10.40,-1.02,0.22,16.42
176945,-26.68,-278.16,-4.66,-1.23,0.43,17.50
176950,-27.40,-284.60,5.53,-1.70,0.55,19.31
176956,-31.27,-291.10,21.99,-3.04,0.52,22.16
176961,-32.90,-293.01,26.80,-3.51,0.48,22.52
176965,-35.13,-293.74,30.95,-4.00,0.37,23.02
176971,-36.93,-293.59,33.14,-4.34,0.24,23.36
176975,-38.84,-294.28,36.30,-4.77,0.10,23.64
176980,-43.39,-298.90,46.51,-5.99,-0.15,24.10
176985,-61.36,-318.94,74.51,-10.55,-0.82,24.50
176990,-67.20,-328.60,83.14,-12.32,-0.97,24.27
176995,-73.07,-340.86,91.71,-14.41,-1.09,23.56
177000,-76.46,-350.63,96.75,-16.01,-1.14,22.58
177005,-78.12,-356.80,99.63,-17.08,-1.15,21.48
177010,-77.87,-361.23,100.70,-18.03,-1.14,19.58
177015,-77.26,-363.32,101.07,-18.62,-1.11,17.29
177020,-76.58,-364.05,101.12,-18.80,-1.09,15.78
177026,-76.25,-362.97,101.06,-18.77,-1.09,15.31
177030,-75.58,-358.29,100.75,-18.64,-1.09,14.67
177035,-74.59,-348.94,99.99,-18.66,-1.10,13.54
177040,-74.11,-344.43,99.57,-18.79,-1.11,12.82
177045,-69.13,-284.64,95.51,-19.81,-1.23,7.45
177050,-66.69,-265.83,92.47,-20.41,-1.28,6.20
177055,-64.48,-248.34,88.57,-21.07,-1.31,5.04
177060,-61.18,-224.26,82.36,-22.02,-1.35,3.59
177065,-52.34,-195.50,68.61,-23.39,-1.34,2.07
177071,-38.49,-174.62,48.13,-24.50,-1.27,1.05
177075,41.32,-138.10,-54.24,-24.26,0.22,-1.08
177080,71.83,-113.94,-97.74,-20.18,4.25,-3.10
177085,72.27,-103.03,-102.61,-19.20,5.42,-3.63
177090,71.83,-99.63,-103.71,-18.91,5.75,-3.78
177095,71.26,-96.60,-104.57,-18.67,6.04,-3.91
177100,69.78,-89.53,-105.85,-18.22,6.60,-4.16
177105,54.89,-17.54,-109.29,-15.23,10.38,-5.85
177110,42.27,19.65,-104.77,-13.49,11.05,-5.37
177115,29.49,50.47,-95.97,-11.90,11.07,-3.78
177120,14.42,79.01,-84.36,-9.56,10.43,-1.35
177126,-5.18,107.58,-65.69,-5.99,9.01,3.27
177131,-14.76,120.46,-56.15,-4.19,8.22,5.69
177135,-56.63,162.78,-15.06,3.91,4.58,16.64
177141,-72.74,171.59,0.84,6.79,3.37,20.89
177145,-77.00,172.12,8.64,7.68,3.07,22.01
177150,-77.45,167.91,24.07,8.22,3.12,22.02
177155,-69.31,160.65,45.18,8.22,3.38,20.04
177161,-61.57,157.50,53.76,7.85,3.58,18.26
177165,-16.16,146.59,85.34,5.03,4.28,8.85
177171,3.56,144.17,93.67,3.49,4.23,5.37
177176,14.14,143.32,96.91,2.60,4.13,3.74
177181,50.32,141.96,101.15,-1.29,2.30,0.29
177185,55.96,141.88,99.73,-1.99,1.64,0.45
177190,60.91,141.89,96.54,-2.62,0.81,1.08
177195,70.70,141.65,75.91,-3.58,-2.42,6.19
177200,72.10,140.87,65.37,-3.40,-3.39,9.17
177206,72.21,140.69,63.62,-3.35,-3.51,9.68
177211,71.48,136.47,43.34,-2.25,-4.12,16.11
177215,70.83,135.01,40.56,-2.01,-3.96,16.90
177220,70.04,133.71,38.96,-1.82,-3.71,17.34
177226,66.35,129.89,37.52,-1.34,-2.78,17.58
177231,58.59,126.54,39.92,-0.93,-1.74,16.47
177236,56.13,125.81,40.73,-0.84,-1.53,16.13
177240,50.07,124.35,42.78,-0.66,-1.19,15.38
177245,34.57,121.63,47.22,-0.40,-1.03,13.76
177250,25.68,119.81,46.71,-0.39,-1.61,12.81
177255,23.72,119.17,45.80,-0.41,-1.90,12.53
177260,21.60,117.49,38.54,-0.60,-2.85,11.92
177265,21.84,117.16,36.51,-0.65,-3.03,11.83
177270,23.54,116.34,31.38,-0.77,-3.43,11.69
177277,30.57,114.60,18.50,-1.05,-4.10,11.52
177281,38.55,112.96,8.22,-1.34,-4.28,11.55
177285,41.05,112.14,5.16,-1.46,-4.21,11.58
177290,44.03,108.84,0.34,-1.73,-3.83,11.65
177295,44.37,106.99,-0.85,-1.82,-3.66,11.67
177300,44.05,104.06,-1.92,-1.91,-3.45,11.67
177305,40.62,93.60,-3.43,-2.07,-2.97,11.61
177311,31.89,75.94,-3.77,-2.12,-2.59,11.36
177315,28.16,68.94,-3.68,-2.11,-2.53,11.25
177320,19.66,53.74,-3.23,-1.98,-2.49,10.98
177325,17.30,49.41,-3.08,-1.93,-2.49,10.91
177330,14.16,43.42,-2.86,-1.84,-2.52,10.81
177335,6.72,28.02,-2.19,-1.55,-2.60,10.54
177340,3.28,19.64,-1.75,-1.37,-2.64,10.37
177345,2.27,16.72,-1.55,-1.31,-2.64,10.29
177350,1.57,14.61,-1.39,-1.27,-2.64,10.22
177355,0.33,10.28,-0.98,-1.20,-2.62,10.05
177360,0.12,9.23,-0.85,-1.18,-2.60,9.99
177366,-0.19,7.59,-0.64,-1.16,-2.55,9.90
177370,-0.32,6.60,-0.52,-1.16,-2.50,9.84
177376,-0.46,5.36,-0.37,-1.15,-2.42,9.76
177381,-1.00,3.81,-0.14,-1.11,-2.32,9.70
177385,-1.14,3.62,-0.08,-1.10,-2.31,9.69
177390,-1.24,3.49,-0.03,-1.08,-2.30,9.69
177396,-1.64,3.18,0.19,-1.03,-2.29,9.66
177400,-2.24,3.14,0.56,-0.94,-2.30,9.54
177405,-2.42,3.20,0.66,-0.92,-2.30,9.50
177411,-2.93,3.63,0.89,-0.88,-2.32,9.36
177416,-3.08,3.80,0.93,-0.87,-2.33,9.32
177421,-3.15,3.89,0.95,-0.87,-2.34,9.31
177425,-3.29,4.09,0.97,-0.87,-2.35,9.28
177431,-3.61,4.73,0.91,-0.89,-2.37,9.24
177435,-3.67,4.90,0.88,-0.90,-2.38,9.24
177441,-3.75,5.35,0.73,-1.00,-2.40,9.24
177445,-3.74,5.43,0.69,-1.04,-2.41,9.25
177450,-3.73,5.47,0.67,-1.06,-2.42,9.25
177456,-3.69,5.54,0.61,-1.13,-2.44,9.25
177461,-3.59,5.58,0.59,-1.23,-2.50,9.27
177465,-3.55,5.54,0.61,-1.26,-2.52,9.27
177470,-3.42,5.10,0.78,-1.32,-2.55,9.32
177476,-3.36,4.73,0.89,-1.33,-2.55,9.35
177480,-3.30,4.22,1.01,-1.34,-2.53,9.37
177485,-3.27,4.02,1.05,-1.34,-2.51,9.38
177490,-3.19,3.27,1.18,-1.34,-2.47,9.41
177495,-3.17,3.15,1.20,-1.34,-2.46,9.41
177500,-3.15,2.98,1.23,-1.34,-2.45,9.41
177505,-3.11,2.72,1.27,-1.33,-2.43,9.42
177510,-3.05,2.28,1.31,-1.33,-2.41,9.42
177515,-2.98,1.84,1.31,-1.32,-2.39,9.41
177520,-2.80,0.88,1.28,-1.30,-2.36,9.39
177526,-2.73,0.45,1.19,-1.29,-2.36,9.38
177530,-2.66,0.07,1.08,-1.28,-2.37,9.35
177535,-2.59,-0.29,0.93,-1.27,-2.39,9.30
177540,-2.56,-0.36,0.83,-1.27,-2.41,9.25
177545,-2.54,-0.33,0.76,-1.27,-2.43,9.21
177550,-2.53,-0.24,0.71,-1.27,-2.43,9.18
177555,-2.52,0.13,0.61,-1.27,-2.45,9.12
177561,-2.50,0.67,0.51,-1.28,-2.47,9.12
177565,-2.50,0.90,0.47,-1.28,-2.48,9.13
177570,-2.52,0.93,0.47,-1.29,-2.48,9.15
177575,-2.53,0.88,0.49,-1.29,-2.48,9.16
177580,-2.55,0.80,0.52,-1.29,-2.49,9.17
177585,-2.60,0.55,0.57,-1.29,-2.50,9.19
177590,-2.64,0.31,0.63,-1.30,-2.50,9.21
177595,-2.77,-0.24,0.76,-1.31,-2.52,9.25
177601,-2.98,-1.18,0.96,-1.33,-2.54,9.31
177605,-3.07,-1.69,1.06,-1.33,-2.55,9.33
177610,-3.18,-2.35,1.18,-1.34,-2.56,9.36
177615,-3.28,-3.08,1.27,-1.34,-2.57,9.37
177620,-3.32,-3.47,1.30,-1.34,-2.57,9.38
177626,-3.37,-4.08,1.32,-1.33,-2.56,9.39
177631,-3.39,-4.84,1.28,-1.31,-2.54,9.39
177635,-3.37,-5.47,1.06,-1.28,-2.49,9.37
177640,-3.32,-5.67,0.89,-1.26,-2.45,9.34
177645,-3.21,-5.66,0.65,-1.23,-2.40,9.30
177650,-3.14,-5.60,0.52,-1.21,-2.39,9.27
177655,-3.06,-5.52,0.38,-1.19,-2.37,9.25
177660,-2.90,-5.11,0.17,-1.16,-2.35,9.21
177665,-2.84,-4.92,0.10,-1.15,-2.35,9.20
177670,-2.70,-4.42,-0.05,-1.12,-2.34,9.18
177675,-2.12,-1.73,-0.70,-1.06,-2.32,9.12
177680,-1.80,-0.01,-1.05,-1.04,-2.31,9.09
177685,-1.58,1.28,-1.28,-1.04,-2.31,9.10
177690,-1.20,3.40,-1.67,-1.06,-2.32,9.15
177695,-0.87,5.05,-2.00,-1.09,-2.33,9.25
177700,-0.61,5.96,-2.26,-1.12,-2.36,9.41
177705,-0.51,5.92,-2.35,-1.13,-2.41,9.53
177710,-0.46,5.53,-2.38,-1.14,-2.44,9.57
177715,-0.43,4.34,-2.35,-1.16,-2.49,9.58
177720,-0.42,3.63,-2.32,-1.18,-2.51,9.56
177725,-0.43,1.71,-2.17,-1.24,-2.54,9.44
177730,-0.44,1.12,-2.11,-1.26,-2.54,9.39
177735,-0.47,0.16,-1.95,-1.26,-2.55,9.24
177740,-0.50,-0.29,-1.84,-1.22,-2.54,9.13
177745,-0.54,-0.56,-1.70,-1.15,-2.52,9.00
177750,-0.61,-0.57,-1.53,-1.02,-2.49,8.85
177755,-0.75,0.93,-1.19,-0.82,-2.42,8.72
177760,-0.80,1.90,-1.05,-0.76,-2.41,8.71
177765,-0.82,2.37,-0.97,-0.74,-2.40,8.71
177770,-0.89,4.87,-0.57,-0.65,-2.39,8.71
177776,-0.95,7.31,-0.16,-0.59,-2.39,8.72
177780,-1.05,12.15,0.69,-0.50,-2.39,8.80
177785,-1.15,15.39,1.33,-0.46,-2.39,8.90
177790,-1.51,19.32,2.27,-0.43,-2.39,9.12
177795,-1.60,19.72,2.43,-0.43,-2.39,9.15
177800,-2.62,21.45,3.46,-0.44,-2.44,9.34
177805,-3.14,21.68,3.87,-0.45,-2.48,9.40
177810,-3.85,21.86,4.37,-0.50,-2.56,9.45
177815,-4.60,21.88,4.85,-0.56,-2.65,9.51
177820,-6.01,21.74,5.62,-0.89,-2.86,9.64
177825,-6.40,21.68,5.81,-1.03,-2.92,9.68
177830,-7.40,21.48,6.21,-1.62,-3.07,9.85
177835,-7.64,21.42,6.25,-1.82,-3.10,9.91
177840,-7.79,21.38,6.26,-2.01,-3.12,9.95
177845,-7.84,21.36,6.31,-2.13,-3.13,9.98
177850,-7.84,21.46,6.56,-2.25,-3.13,9.96
177855,-7.83,21.49,6.62,-2.26,-3.12,9.95
177860,-7.57,22.07,7.38,-2.19,-3.02,9.72
177865,-7.19,23.07,7.99,-2.07,-2.85,9.45
177870,-6.72,24.36,8.34,-1.93,-2.71,9.25
177876,-5.59,27.11,8.77,-1.64,-2.52,8.96
177880,3.95,41.01,9.38,-0.07,-2.29,8.29
177885,6.53,44.05,9.38,0.29,-2.37,8.23
177890,10.02,48.24,9.36,0.76,-2.54,8.18
177895,14.74,55.18,9.68,1.38,-2.92,8.16
177900,17.63,60.27,10.39,1.77,-3.39,8.20
177905,20.96,65.28,11.49,2.11,-4.04,8.28
177910,37.59,78.67,31.08,2.80,-6.86,9.00
177915,44.33,82.11,37.44,2.92,-7.37,9.21
177920,57.27,88.32,48.02,3.08,-8.12,9.54
177925,87.47,104.17,66.26,3.37,-9.22,10.07
177930,123.00,126.09,81.86,3.64,-9.83,10.50
177935,158.52,150.42,91.76,3.83,-9.97,10.91
177941,248.97,222.78,97.15,4.00,-7.86,12.04
177945,264.11,236.01,95.97,3.98,-7.19,12.32
177950,286.69,255.73,93.76,3.95,-6.13,12.75
177955,322.98,285.23,88.47,3.86,-4.43,13.40
177960,347.83,304.77,82.04,3.75,-3.18,13.57
177965,365.82,320.78,72.23,3.60,-2.10,13.33
177970,339.72,337.24,-21.98,2.86,-1.77,6.48
177975,299.63,323.28,-45.06,2.82,-3.34,4.71
177980,275.56,314.29,-56.44,2.83,-4.28,4.00
177985,229.33,296.47,-75.19,2.92,-5.93,3.39
177990,163.15,269.56,-96.15,3.22,-8.18,3.11
177995,116.01,248.35,-108.29,3.54,-9.23,3.44
178000,51.11,215.43,-123.38,4.17,-9.85,4.30
178005,-24.00,171.77,-140.92,5.02,-8.44,5.47
178010,-36.91,163.47,-144.13,5.19,-7.82,5.71
178015,-57.33,149.79,-149.66,5.44,-6.49,6.19
178020,-77.35,136.00,-155.79,5.68,-4.45,6.81
178026,-87.32,129.11,-159.44,5.79,-2.68,7.37
178030,-93.07,125.36,-162.11,5.84,-0.64,8.30
178035,-92.90,120.47,-162.37,5.91,1.65,9.49
178040,-92.61,119.73,-162.07,5.92,1.87,9.60
178045,-92.06,116.41,-160.68,5.95,2.47,9.83
178050,-91.58,107.67,-157.13,6.00,3.07,9.98
178055,-91.55,95.69,-152.00,6.04,3.48,9.97
178060,-92.90,68.06,-138.27,6.07,3.87,9.69
178065,-94.74,31.15,-117.36,6.06,4.02,9.28
178070,-95.96,-5.57,-94.28,5.94,4.00,8.99
178075,-96.03,-9.73,-91.66,5.90,3.97,8.99
178080,-95.92,-14.11,-88.68,5.85,3.89,9.05
178085,-94.50,-26.66,-81.20,5.62,3.41,9.56
178090,-92.63,-33.72,-77.99,5.45,3.02,9.99
178095,-81.26,-61.59,-68.54,4.77,1.50,11.58
178100,-71.41,-83.97,-63.40,4.36,0.67,12.39
178105,-68.89,-89.93,-62.25,4.26,0.50,12.54
178110,-54.87,-124.56,-56.88,3.73,-0.23,13.08
178115,-46.28,-148.26,-54.38,3.32,-0.54,13.09
178120,-39.68,-169.29,-52.96,2.88,-0.71,12.88
178126,-34.79,-189.69,-52.48,2.30,-0.80,12.38
178130,-33.93,-195.07,-52.38,2.11,-0.82,12.15
178135,-33.72,-201.83,-52.19,1.86,-0.85,11.87
178140,-34.20,-211.77,-51.79,1.52,-0.92,11.49
178145,-34.86,-216.89,-51.47,1.33,-1.00,11.43
178150,-37.31,-233.44,-50.00,0.62,-1.68,11.51
178155,-38.59,-244.35,-49.20,-0.04,-2.44,11.93
178160,-38.83,-247.23,-49.07,-0.22,-2.65,12.07
178165,-39.20,-253.90,-48.96,-0.68,-3.21,12.47
178170,-39.36,-260.59,-49.02,-1.12,-3.74,12.91
178175,-39.23,-264.41,-49.43,-1.33,-4.00,13.19
178180,-39.01,-267.78,-50.11,-1.50,-4.16,13.45
178185,-38.66,-272.89,-51.23,-1.68,-4.26,13.82
178190,-38.36,-276.95,-52.27,-1.81,-4.30,14.11
178195,-38.16,-280.70,-53.15,-1.91,-4.30,14.38
178200,-38.14,-286.71,-54.36,-2.04,-4.20,14.79
178205,-38.33,-290.37,-54.69,-2.11,-4.07,15.15
178210,-38.98,-293.20,-54.28,-2.17,-3.87,15.57
178215,-40.41,-296.38,-52.89,-2.25,-3.51,16.35
178220,-42.61,-298.77,-49.85,-2.34,-3.01,17.44
178226,-44.27,-299.79,-46.76,-2.40,-2.64,18.33
178230,-46.99,-300.43,-39.56,-2.53,-2.08,19.98
178235,-47.62,-300.35,-36.97,-2.60,-1.98,20.45
178240,-48.38,-300.09,-33.26,-2.74,-1.86,21.07
178245,-49.93,-299.27,-26.59,-3.09,-1.71,22.26
178250,-52.48,-297.45,-16.68,-4.17,-1.55,24.16
178255,-52.97,-297.01,-14.43,-4.46,-1.53,24.56
178260,-54.95,-294.86,-4.42,-6.01,-1.45,26.24
178265,-56.40,-290.96,23.55,-10.38,-1.56,28.76
178270,-56.25,-289.96,37.30,-12.43,-1.63,29.26
178276,-55.66,-289.44,50.47,-14.44,-1.70,29.48
178280,-53.69,-289.83,57.77,-15.83,-1.58,29.34
178285,-51.75,-290.62,59.95,-16.46,-1.34,29.03
178290,-47.64,-292.28,61.10,-17.35,-0.86,28.33
178295,-42.02,-294.17,61.71,-17.99,-0.14,27.15
178300,-24.79,-298.90,60.95,-20.02,2.37,22.06
178305,-15.20,-301.03,60.23,-21.36,3.90,18.41
178310,-7.85,-299.82,59.64,-22.87,5.19,14.76
178315,0.83,-286.52,58.48,-25.71,6.85,8.97
178320,1.87,-281.30,58.23,-26.23,7.07,8.19
178325,3.63,-268.37,57.55,-27.18,7.37,6.66
178330,4.16,-263.30,57.21,-27.49,7.42,6.01
178335,5.57,-235.58,50.37,-28.58,7.43,2.97
178341,7.95,-222.53,41.01,-28.94,7.52,-0.22
178346,10.40,-217.99,34.76,-29.00,7.64,-2.33
178350,17.10,-208.10,24.43,-28.99,8.01,-6.16
178355,21.31,-203.30,20.61,-28.90,8.31,-7.74
178360,26.25,-197.95,17.23,-28.71,8.69,-9.24
178365,34.39,-186.86,13.41,-28.23,9.33,-11.27
178370,44.78,-156.27,11.14,-26.84,10.16,-12.99
178376,53.75,-116.61,10.14,-24.97,10.90,-14.00
178380,58.76,-66.28,10.07,-22.40,11.28,-14.48
178385,53.70,-15.85,11.70,-19.62,10.72,-13.82
178390,51.09,-0.72,12.43,-18.77,10.46,-13.51
178395,18.49,105.87,18.35,-12.94,7.16,-10.48
178400,-33.32,206.94,28.65,-7.71,2.14,-6.50
178405,-41.12,218.27,30.59,-7.15,1.39,-5.94
178410,-63.91,248.42,41.73,-5.73,-1.22,-4.03
178415,-72.60,262.57,61.15,-5.08,-2.92,-2.82
178420,-65.47,260.51,76.25,-5.14,-3.36,-2.61
178425,-42.35,252.50,93.00,-5.39,-3.48,-2.55
178430,-5.66,239.11,108.45,-5.79,-3.22,-2.12
178435,1.92,236.30,110.47,-5.87,-3.15,-1.98
178441,15.31,231.08,112.79,-6.00,-3.00,-1.53
178445,41.67,219.80,113.05,-6.10,-2.59,1.09
178450,52.42,214.21,109.74,-5.98,-2.34,2.88
178455,58.83,210.55,105.37,-5.75,-2.16,4.25
178460,70.30,201.79,94.01,-4.99,-1.83,6.71
178465,80.35,188.04,77.82,-3.64,-1.51,8.78
178470,83.07,181.29,72.57,-3.17,-1.44,9.16
178476,84.77,175.02,67.94,-2.75,-1.39,9.40
178480,85.56,163.07,60.59,-2.15,-1.37,9.66
178486,85.41,150.33,54.74,-1.72,-1.37,9.80
178490,84.54,143.20,51.33,-1.47,-1.39,9.99
178495,79.21,134.06,46.72,-1.12,-1.63,10.62
178501,77.87,132.64,45.76,-1.06,-1.70,10.76
178505,74.05,129.89,43.44,-0.89,-1.92,11.12
178510,56.72,118.40,27.69,-0.42,-3.14,12.16
178515,54.85,116.05,23.85,-0.39,-3.29,12.21
178520,51.86,109.23,12.82,-0.41,-3.54,12.19
178525,51.02,104.53,5.05,-0.49,-3.61,12.07
178530,50.91,103.43,3.20,-0.51,-3.62,12.02
178535,50.42,99.41,-3.48,-0.69,-3.63,11.72
178541,49.97,97.69,-6.25,-0.80,-3.61,11.50
178545,48.76,94.61,-11.25,-1.12,-3.51,10.88
178550,47.79,92.65,-13.00,-1.30,-3.42,10.54
178555,45.37,89.42,-14.58,-1.54,-3.25,10.08
178561,42.95,86.47,-15.09,-1.70,-3.13,9.81
178565,35.80,76.33,-14.83,-1.91,-2.91,9.47
178570,28.78,65.12,-13.98,-1.98,-2.80,9.36
178575,23.89,56.88,-13.15,-1.99,-2.78,9.34
178580,12.28,35.70,-10.63,-1.94,-2.68,9.42
178585,9.00,29.04,-9.72,-1.91,-2.63,9.47
178591,7.58,25.80,-9.26,-1.90,-2.58,9.51
178595,5.90,21.28,-8.50,-1.88,-2.48,9.59
178600,5.70,19.83,-8.21,-1.87,-2.45,9.62
178605,5.46,16.56,-7.53,-1.84,-2.36,9.70
178610,5.47,15.53,-7.24,-1.82,-2.35,9.72
178615,5.66,13.93,-6.63,-1.75,-2.37,9.75
178620,5.72,12.80,-6.13,-1.70,-2.39,9.75
178626,5.48,10.51,-4.99,-1.61,-2.43,9.75
178631,5.27,9.53,-4.52,-1.59,-2.43,9.74
178635,4.70,7.60,-3.64,-1.55,-2.42,9.72
178640,4.34,6.67,-3.23,-1.55,-2.41,9.70
178645,3.91,5.75,-2.84,-1.54,-2.40,9.67
178650,3.55,5.22,-2.62,-1.54,-2.39,9.63
178656,2.97,4.65,-2.36,-1.55,-2.38,9.55
178660,2.60,4.43,-2.28,-1.55,-2.37,9.48
178665,2.27,4.33,-2.27,-1.56,-2.37,9.42
178671,1.81,4.17,-2.28,-1.58,-2.36,9.33
178675,1.37,3.88,-2.29,-1.60,-2.35,9.26
178680,1.22,3.76,-2.28,-1.61,-2.35,9.25
178685,1.03,3.56,-2.23,-1.62,-2.35,9.24
178691,0.93,3.45,-2.19,-1.63,-2.35,9.25
178695,0.82,3.32,-2.13,-1.63,-2.35,9.26
178700,0.69,3.16,-2.04,-1.64,-2.35,9.27
178705,0.60,2.98,-1.94,-1.66,-2.35,9.28
178710,0.56,2.89,-1.90,-1.67,-2.36,9.29
178715,0.51,2.74,-1.83,-1.68,-2.36,9.30
178720,0.46,2.55,-1.76,-1.69,-2.37,9.31
178726,0.42,2.25,-1.69,-1.72,-2.39,9.31
178730,0.36,1.77,-1.61,-1.74,-2.41,9.32
178735,0.16,0.49,-1.40,-1.76,-2.44,9.32
178740,0.07,0.09,-1.29,-1.77,-2.45,9.32
178745,-0.13,-0.48,-1.08,-1.76,-2.45,9.32
178750,-0.34,-1.11,-0.87,-1.74,-2.43,9.32
178755,-0.94,-2.47,-0.26,-1.70,-2.40,9.33
178760,-1.27,-3.17,0.02,-1.68,-2.37,9.33
178765,-1.71,-4.00,0.31,-1.64,-2.34,9.34
178770,-1.94,-4.41,0.42,-1.62,-2.32,9.34
178775,-2.13,-4.72,0.49,-1.61,-2.31,9.34
178780,-2.22,-4.88,0.51,-1.60,-2.31,9.34
178785,-2.31,-5.06,0.50,-1.59,-2.31,9.35
178791,-2.35,-5.18,0.47,-1.59,-2.33,9.35
178802,-2.39,-5.32,0.41,-1.61,-2.35,9.36
178805,-2.44,-5.50,0.35,-1.63,-2.37,9.37
178807,-2.52,-5.74,0.28,-1.68,-2.40,9.40
178810,-2.57,-5.87,0.26,-1.70,-2.42,9.41
178815,-2.64,-6.05,0.24,-1.74,-2.43,9.44
178820,-2.76,-6.37,0.24,-1.78,-2.46,9.47
178825,-2.86,-6.70,0.31,-1.80,-2.48,9.48
178830,-3.00,-7.31,0.51,-1.80,-2.52,9.49
178835,-3.05,-7.78,0.70,-1.76,-2.54,9.46
178841,-3.05,-8.66,1.02,-1.69,-2.55,9.41
178845,-3.03,-8.78,1.06,-1.68,-2.55,9.40
178850,-2.50,-10.02,1.36,-1.60,-2.50,9.32
178855,-2.04,-10.31,1.37,-1.59,-2.46,9.30
178860,-1.89,-10.36,1.38,-1.59,-2.44,9.29
178865,-1.80,-10.37,1.39,-1.59,-2.44,9.29
178870,-1.73,-10.35,1.43,-1.59,-2.43,9.29
178875,-1.73,-10.32,1.48,-1.59,-2.43,9.29
178880,-1.76,-10.25,1.63,-1.59,-2.44,9.28
178885,-1.81,-10.18,1.87,-1.59,-2.45,9.26
178890,-1.86,-10.15,1.98,-1.58,-2.46,9.25
178895,-1.90,-10.12,2.08,-1.56,-2.47,9.22
178900,-1.97,-10.09,2.21,-1.51,-2.48,9.18
178905,-2.10,-10.05,2.36,-1.32,-2.49,9.07
178910,-2.12,-10.00,2.32,-1.23,-2.47,9.03
178916,-2.13,-9.94,2.17,-1.17,-2.41,9.00
178920,-2.11,-9.82,1.99,-1.14,-2.34,8.99
178925,-2.10,-9.64,1.84,-1.12,-2.28,8.99
178930,-2.08,-9.42,1.69,-1.11,-2.23,8.99
178935,-2.01,-8.73,1.30,-1.10,-2.11,9.00
178941,-1.96,-8.13,1.00,-1.10,-2.05,9.01
178945,-1.83,-6.36,0.20,-1.09,-1.90,9.03
178950,-1.70,-4.72,-0.48,-1.10,-1.80,9.06
178955,-1.60,-3.37,-0.97,-1.11,-1.75,9.09
178960,-1.50,-2.10,-1.43,-1.13,-1.74,9.12
178965,-1.28,1.44,-2.77,-1.27,-1.91,9.27
178970,-1.31,2.07,-3.18,-1.38,-2.13,9.37
178976,-1.38,2.01,-3.34,-1.47,-2.32,9.43
178980,-1.42,1.75,-3.37,-1.50,-2.41,9.46
178985,-1.46,1.46,-3.37,-1.52,-2.46,9.47
178990,-1.50,1.09,-3.36,-1.55,-2.51,9.47
178995,-1.57,-0.05,-3.26,-1.59,-2.61,9.46
179000,-1.69,-2.06,-2.97,-1.62,-2.69,9.41
179005,-1.96,-4.71,-2.43,-1.62,-2.69,9.26
179010,-2.25,-6.06,-2.11,-1.58,-2.67,9.17
179015,-2.43,-6.67,-1.93,-1.53,-2.66,9.12
179020,-2.73,-7.45,-1.62,-1.38,-2.63,9.08
179025,-2.95,-7.91,-1.35,-1.21,-2.61,9.06
179030,-3.03,-8.04,-1.01,-1.00,-2.58,9.04
179035,-2.87,-7.45,-0.32,-0.74,-2.51,9.03
179041,-2.75,-6.90,-0.10,-0.70,-2.48,9.02
179045,-2.56,-5.93,0.23,-0.65,-2.45,9.02
179050,-2.23,-3.60,0.92,-0.55,-2.40,9.00
179055,-1.95,-0.74,1.61,-0.48,-2.35,8.99
179060,-1.80,1.89,2.17,-0.40,-2.33,8.99
179065,-1.71,8.13,3.30,-0.12,-2.30,8.98
179070,-1.87,10.73,3.71,0.00,-2.30,8.99
179076,-2.23,12.83,4.06,0.09,-2.33,9.03
179080,-3.25,15.66,4.98,0.12,-2.43,9.14
179085,-3.99,16.83,5.61,0.11,-2.51,9.22
179090,-4.65,17.47,6.24,0.04,-2.59,9.29
179095,-5.55,18.12,7.16,-0.16,-2.70,9.39
179100,-6.24,18.63,8.00,-0.48,-2.81,9.47
179105,-6.60,18.87,8.44,-0.74,-2.88,9.51
179110,-7.27,19.16,9.07,-1.24,-3.02,9.59
179115,-7.93,19.25,9.49,-1.70,-3.17,9.65
179120,-8.75,19.07,9.77,-2.02,-3.29,9.66
179126,-10.01,18.55,10.08,-2.31,-3.42,9.65
179130,-11.19,18.04,10.46,-2.39,-3.49,9.61
179135,-11.99,17.67,10.77,-2.36,-3.52,9.56
179140,-12.68,17.35,11.08,-2.32,-3.53,9.51
179145,-13.47,17.09,11.62,-2.08,-3.53,9.42
179150,-13.94,17.02,12.20,-1.61,-3.52,9.30
179155,-13.89,17.50,12.91,-0.77,-3.50,9.06
179160,-4.76,30.97,16.03,2.38,-3.78,8.11
179165,-2.92,33.71,16.97,2.61,-3.93,8.02
179170,-0.05,38.32,19.43,2.91,-4.28,7.90
179175,3.58,44.35,24.42,3.14,-4.90,7.85
179180,13.45,56.98,42.80,3.29,-6.88,8.02
179185,16.37,59.84,47.75,3.29,-7.39,8.15
179191,28.97,68.94,61.03,3.23,-8.79,8.79
179195,71.39,93.80,79.47,3.02,-10.85,10.65
179200,84.49,102.10,81.99,2.96,-11.16,11.10
179205,124.19,128.23,86.31,2.79,-11.77,12.29
179210,273.53,238.45,87.86,2.21,-12.42,14.95
179215,296.53,256.46,87.19,2.13,-12.43,15.24
179220,335.33,287.73,85.45,2.01,-12.43,15.64
179226,444.48,376.77,76.40,1.71,-12.32,16.51
179230,463.23,392.37,73.40,1.69,-12.25,16.61
179235,492.26,417.63,65.42,1.69,-12.03,16.76
179240,504.00,436.13,26.55,2.00,-10.90,16.81
179245,484.58,427.95,2.38,2.21,-10.12,16.68
179250,463.23,416.92,-11.02,2.33,-9.68,16.47
179255,354.99,359.31,-57.94,2.79,-7.99,15.12
179260,322.16,341.78,-68.94,2.92,-7.52,14.61
179265,183.43,267.27,-107.44,3.44,-5.69,12.03
179270,128.92,237.71,-121.13,3.67,-4.96,10.92
179275,-40.12,144.34,-156.87,4.64,-2.62,6.95
179280,-57.17,134.71,-160.12,4.78,-2.35,6.55
179285,-74.87,125.26,-163.01,4.96,-1.94,6.29
179291,-81.81,122.52,-163.80,5.06,-1.63,6.41
179295,-92.94,117.02,-164.65,5.31,-0.66,7.30
179300,-93.11,116.08,-164.40,5.36,-0.37,7.66
179305,-93.17,113.83,-163.62,5.48,0.29,8.48
179310,-92.54,109.15,-162.69,5.60,0.92,9.09
179315,-91.68,96.83,-160.98,5.77,1.78,9.73
179320,-91.69,90.86,-160.05,5.83,2.07,9.85
179325,-92.45,64.97,-154.91,5.99,2.82,9.89
179330,-92.87,56.54,-152.81,6.03,2.96,9.78
179335,-93.66,42.63,-148.73,6.07,3.13,9.52
179340,-94.38,20.95,-141.02,6.09,3.22,9.09
179345,-94.34,-5.49,-129.63,6.07,3.18,8.59
179350,-94.00,-11.79,-126.67,6.06,3.15,8.52
179355,-90.08,-37.93,-113.01,5.91,2.83,8.44
179360,-88.03,-45.46,-108.67,5.83,2.66,8.56
179365,-82.97,-57.91,-101.04,5.60,2.23,8.98
179370,-77.00,-67.91,-94.08,5.31,1.72,9.58
179375,-63.86,-83.98,-82.56,4.64,0.62,10.95
179380,-60.99,-87.22,-80.47,4.49,0.41,11.22
179385,-51.04,-100.18,-73.57,3.98,-0.22,11.99
179391,-46.86,-108.65,-70.57,3.76,-0.42,12.20
179395,-40.89,-126.18,-65.80,3.39,-0.64,12.37
179400,-37.94,-140.60,-62.62,3.12,-0.70,12.32
179405,-34.60,-170.44,-57.22,2.58,-0.79,12.14
179410,-34.02,-187.23,-54.41,2.25,-0.84,11.98
179415,-33.88,-201.93,-52.14,1.94,-0.90,11.83
179420,-34.32,-215.26,-50.11,1.61,-0.99,11.72
179425,-35.55,-229.51,-47.93,1.18,-1.22,11.70
179430,-37.21,-240.71,-45.89,0.75,-1.54,11.80
179435,-39.15,-249.22,-44.08,0.33,-1.93,12.06
179441,-42.33,-260.14,-41.20,-0.23,-2.49,12.49
179445,-44.60,-266.71,-39.21,-0.55,-2.83,12.78
179450,-46.12,-270.96,-37.97,-0.73,-3.01,12.94
179455,-47.70,-275.19,-36.72,-0.89,-3.18,13.09
179460,-49.87,-280.80,-35.07,-1.10,-3.35,13.32
179465,-51.83,-285.67,-33.63,-1.28,-3.49,13.55
179470,-53.65,-289.91,-32.23,-1.45,-3.59,13.82
179475,-56.63,-296.25,-29.61,-1.75,-3.70,14.48
179480,-57.34,-297.69,-28.78,-1.83,-3.71,14.70
179485,-58.15,-299.03,-27.72,-1.93,-3.70,15.00
179490,-59.25,-299.90,-25.46,-2.04,-3.60,15.67
179495,-60.08,-300.09,-22.99,-2.12,-3.41,16.48
179500,-60.99,-299.75,-20.77,-2.18,-3.21,17.25
179505,-62.98,-298.36,-16.93,-2.26,-2.86,18.51
179510,-67.17,-295.26,-10.90,-2.38,-2.44,20.00
179515,-71.76,-291.87,-5.57,-2.48,-2.13,21.02
179520,-77.58,-287.66,0.76,-2.64,-1.79,22.03
179525,-89.75,-278.84,13.23,-3.17,-1.17,23.60
179530,-95.96,-274.05,20.02,-3.59,-0.81,24.37
179535,-105.63,-266.34,31.10,-4.68,-0.16,25.51
179541,-111.90,-258.55,41.08,-6.06,0.42,26.35
179545,-115.48,-248.70,51.55,-8.04,1.02,26.98
179550,-115.69,-244.17,55.21,-8.83,1.20,27.10
179555,-110.55,-231.08,62.94,-11.31,1.42,27.18
179560,-104.38,-226.16,64.95,-12.48,1.39,27.08
179565,-101.13,-224.52,65.52,-12.96,1.36,27.02
179570,-82.83,-221.79,65.71,-14.89,1.12,26.51
179575,-43.62,-226.90,61.56,-17.28,0.63,24.86
179580,-34.87,-229.31,60.19,-17.61,0.54,24.43
179585,-4.31,-240.80,54.37,-18.53,0.28,22.70
179590,22.74,-253.08,48.45,-19.42,0.13,20.92
179595,70.61,-278.81,36.41,-21.13,0.10,16.90
179600,120.25,-310.17,17.63,-25.78,0.79,9.39
179605,127.94,-316.64,11.94,-27.46,1.26,7.05
179610,134.49,-321.19,4.06,-29.92,2.21,3.79
179615,135.27,-321.45,2.03,-30.55,2.53,2.91
179620,134.69,-320.08,-2.21,-31.74,3.35,0.95
179625,130.30,-306.48,-7.86,-32.98,4.96,-2.01
179630,122.54,-278.08,-10.35,-33.20,6.44,-5.14
179635,103.89,-196.83,-8.85,-31.53,7.72,-8.19
179641,94.74,-156.65,-7.40,-30.48,7.96,-8.78
179645,56.19,-23.82,-3.13,-25.35,7.60,-8.05
179650,19.98,73.82,-0.27,-19.27,5.02,-2.85
179655,-10.37,138.37,1.48,-13.03,1.83,2.85
179660,-46.57,208.40,3.76,-4.57,-2.72,11.16
179665,-56.19,224.80,4.38,-1.97,-4.17,13.89
179670,-66.42,239.95,5.04,0.99,-5.84,17.20
179675,-77.84,252.21,5.56,4.46,-7.77,21.64
179680,-83.96,256.09,4.95,6.75,-8.94,24.94
179685,-81.98,249.92,5.09,7.95,-9.19,26.94
179690,-54.25,212.10,13.08,7.65,-7.95,26.48
179695,-39.51,199.86,19.23,6.95,-7.39,25.14
179700,-0.82,176.66,36.84,4.01,-6.00,20.54
179705,9.05,172.66,41.29,3.04,-5.71,19.42
179710,37.23,163.50,53.67,-0.06,-4.90,16.23
179715,55.29,161.24,59.77,-2.55,-4.18,14.35
179720,64.16,160.57,62.19,-4.03,-3.74,13.50
179725,71.17,159.89,63.54,-5.40,-3.27,12.93
179730,76.98,158.35,62.71,-6.81,-2.46,12.97
179735,78.51,157.50,61.89,-7.13,-2.12,13.30
179740,78.74,156.83,61.28,-7.14,-1.95,13.63
179745,77.51,152.95,59.77,-6.67,-1.68,14.81
179750,76.36,149.07,58.88,-6.23,-1.57,15.61
179755,73.87,140.97,57.20,-5.25,-1.48,17.00
179760,71.07,133.30,55.73,-4.30,-1.48,18.14
179765,65.36,121.85,53.41,-3.03,-1.48,18.96
179770,46.16,104.02,47.24,-1.56,-1.50,17.78
179775,34.64,97.66,44.81,-1.34,-1.43,16.59
179780,28.06,94.24,43.42,-1.26,-1.35,15.79
179785,16.76,87.12,40.61,-1.21,-1.30,14.29
179791,11.05,82.74,38.75,-1.18,-1.32,13.40
179795,7.24,78.16,35.83,-1.06,-1.45,12.48
179800,4.15,70.67,27.80,-0.70,-2.05,10.96
179805,4.14,68.64,24.57,-0.54,-2.29,10.53
179810,4.70,66.75,20.26,-0.33,-2.60,10.10
179815,6.56,65.48,15.05,-0.08,-2.91,9.77
179820,9.02,65.01,11.29,0.06,-3.08,9.61
179826,12.24,65.21,8.27,0.09,-3.16,9.60
179830,17.91,65.67,4.84,0.03,-3.23,9.64
179835,21.00,65.99,3.45,-0.07,-3.25,9.70
179840,23.41,66.28,2.55,-0.19,-3.28,9.76
179845,26.01,66.59,1.70,-0.35,-3.32,9.86
179850,27.42,66.62,1.22,-0.45,-3.36,9.92
179855,29.29,65.87,0.45,-0.68,-3.46,10.09
179860,29.80,64.57,0.20,-0.83,-3.51,10.22
179866,29.80,63.97,0.18,-0.88,-3.50,10.26
179870,29.69,63.01,0.20,-0.95,-3.45,10.30
179875,29.40,61.63,0.32,-1.04,-3.35,10.34
179880,28.97,60.49,0.45,-1.09,-3.22,10.36
179885,26.61,56.63,0.53,-1.17,-2.87,10.35
179891,23.63,52.53,0.47,-1.20,-2.64,10.33
179895,22.45,51.02,0.40,-1.21,-2.59,10.32
179900,20.40,48.39,0.27,-1.22,-2.51,10.30
179905,16.04,42.61,0.05,-1.23,-2.41,10.23
