time_stamp,gyro_x,gyro_y,gyro_z,accel_x,accel_y,accel_z,quat_x,quat_y,quat_z,quat_w
4012,2.14,-0.72,-0.67,1.55,-1.89,9.39
4017,2.17,-0.62,-0.60,1.52,-1.88,9.40
4024,2.21,-0.44,-0.44,1.45,-1.87,9.42
4027,2.23,-0.33,-0.30,1.38,-1.83,9.45
4032,2.22,-0.31,-0.33,1.36,-1.79,9.47
4037,2.13,-0.35,-0.48,1.38,-1.77,9.47
4043,2.09,-0.36,-0.52,1.39,-1.76,9.47
4047,1.98,-0.39,-0.61,1.42,-1.75,9.48
4052,1.67,-0.45,-0.77,1.47,-1.74,9.48
4057,1.24,-0.48,-0.94,1.52,-1.75,9.48
4062,1.00,-0.47,-1.02,1.54,-1.75,9.46
4067,0.78,-0.42,-1.14,1.57,-1.78,9.45
4072,0.76,-0.36,-1.19,1.56,-1.80,9.44
4077,0.76,-0.26,-1.24,1.54,-1.81,9.44
4082,0.89,0.10,-1.32,1.45,-1.85,9.50
4087,0.92,0.51,-1.37,1.36,-1.87,9.59
4093,0.70,0.96,-1.41,1.28,-1.88,9.68
4097,0.40,1.25,-1.45,1.23,-1.89,9.74
4102,0.16,1.35,-1.48,1.23,-1.89,9.76
4108,-0.12,1.40,-1.52,1.23,-1.88,9.78
4112,-0.41,1.18,-1.54,1.31,-1.87,9.76
4117,-0.58,0.66,-1.48,1.52,-1.85,9.71
4123,-0.60,0.52,-1.44,1.58,-1.84,9.69
4128,-0.61,0.30,-1.33,1.68,-1.84,9.66
4132,-0.59,0.15,-1.17,1.78,-1.83,9.62
4137,-0.57,0.05,-0.98,1.86,-1.83,9.60
4143,-0.58,-0.02,-0.53,1.96,-1.83,9.55
4147,-0.60,-0.03,-0.21,2.00,-1.83,9.52
4153,-0.65,-0.03,0.15,2.03,-1.84,9.49
4157,-0.77,0.02,0.54,2.05,-1.85,9.47
4162,-0.94,0.15,1.05,2.09,-1.86,9.45
4167,-1.10,0.31,1.49,2.14,-1.87,9.44
4172,-1.17,0.43,1.79,2.18,-1.88,9.44
4178,-1.23,0.49,1.96,2.21,-1.88,9.43
4182,-1.36,0.52,2.14,2.24,-1.88,9.42
4187,-1.62,0.52,2.25,2.27,-1.87,9.41
4192,-1.81,0.50,2.25,2.26,-1.87,9.40
4197,-1.98,0.49,2.23,2.26,-1.86,9.40
4203,-2.27,0.47,2.15,2.23,-1.85,9.39
4207,-2.54,0.45,2.05,2.18,-1.84,9.38
4212,-2.72,0.44,1.96,2.13,-1.84,9.37
4217,-2.87,0.43,1.88,2.08,-1.84,9.37
4222,-3.01,0.42,1.82,2.02,-1.86,9.37
4227,-3.07,0.41,1.80,2.00,-1.87,9.38
4232,-3.14,0.39,1.82,1.99,-1.88,9.39
4238,-3.18,0.35,1.91,2.00,-1.89,9.39
4243,-3.17,0.29,2.15,2.03,-1.91,9.40
4247,-3.12,0.25,2.40,2.06,-1.92,9.40
4252,-2.97,0.24,2.79,2.10,-1.93,9.39
4257,-2.78,0.26,3.16,2.14,-1.93,9.39
4262,-2.53,0.41,3.53,2.15,-1.93,9.39
4267,-2.44,0.49,3.65,2.16,-1.93,9.39
4272,-2.33,0.67,3.79,2.16,-1.92,9.39
4277,-2.23,0.95,3.89,2.15,-1.92,9.39
4283,-2.15,1.51,3.91,2.08,-1.90,9.39
4288,-2.16,1.67,3.88,2.05,-1.90,9.39
4292,-2.21,1.86,3.81,2.00,-1.89,9.38
4297,-2.30,2.09,3.69,1.93,-1.87,9.37
4303,-2.39,2.25,3.59,1.88,-1.84,9.36
4308,-2.52,2.44,3.45,1.83,-1.81,9.34
4312,-2.89,2.88,3.06,1.77,-1.73,9.29
4317,-3.02,3.04,2.93,1.77,-1.72,9.29
4322,-3.15,3.21,2.79,1.77,-1.71,9.29
4327,-3.36,3.49,2.58,1.78,-1.70,9.30
4332,-3.52,3.71,2.42,1.78,-1.70,9.31
4338,-3.66,3.89,2.29,1.79,-1.71,9.32
4342,-4.24,4.46,1.80,1.81,-1.77,9.36
4347,-4.58,4.65,1.59,1.82,-1.82,9.38
4353,-4.72,4.71,1.51,1.83,-1.84,9.38
4357,-5.07,4.81,1.39,1.83,-1.89,9.39
4362,-5.30,4.85,1.33,1.83,-1.92,9.40
4367,-5.49,4.90,1.31,1.83,-1.95,9.40
4372,-5.80,4.99,1.34,1.83,-1.98,9.39
4377,-5.96,5.09,1.40,1.83,-1.99,9.38
4382,-6.05,5.20,1.45,1.83,-1.99,9.38
4387,-6.18,5.44,1.57,1.83,-2.00,9.37
4392,-6.27,5.68,1.66,1.83,-2.01,9.36
4397,-6.36,6.07,1.78,1.83,-2.01,9.35
4402,-6.46,6.74,1.95,1.83,-2.01,9.32
4407,-6.51,7.38,2.11,1.83,-2.01,9.30
4412,-6.52,7.66,2.20,1.82,-2.01,9.30
4417,-6.53,8.10,2.34,1.81,-2.01,9.30
4422,-6.55,8.29,2.41,1.79,-2.01,9.30
4427,-6.58,8.51,2.51,1.78,-2.01,9.30
4432,-6.77,9.00,2.70,1.73,-2.01,9.30
4437,-7.43,9.72,2.96,1.63,-2.01,9.31
4443,-7.77,9.94,3.03,1.59,-2.01,9.32
4447,-8.15,10.14,3.10,1.55,-2.02,9.33
4452,-8.74,10.38,3.17,1.50,-2.04,9.36
4458,-9.28,10.65,3.21,1.48,-2.06,9.38
4462,-9.49,10.78,3.22,1.47,-2.07,9.38
4467,-9.88,11.02,3.21,1.49,-2.09,9.37
4472,-10.03,11.12,3.18,1.50,-2.09,9.36
4477,-10.28,11.26,3.10,1.51,-2.10,9.35
4482,-11.04,11.49,2.79,1.54,-2.12,9.33
4488,-11.66,11.59,2.54,1.55,-2.13,9.31
4493,-12.20,11.64,2.32,1.56,-2.14,9.30
4497,-12.83,11.71,2.10,1.56,-2.15,9.28
4502,-13.52,11.77,1.94,1.56,-2.16,9.24
4507,-13.98,11.84,1.88,1.56,-2.17,9.21
4512,-14.41,11.95,1.97,1.53,-2.17,9.19
4517,-14.55,12.01,2.04,1.52,-2.17,9.19
4522,-14.65,12.07,2.12,1.50,-2.17,9.20
4527,-14.83,12.20,2.31,1.45,-2.16,9.23
4532,-15.22,12.44,2.80,1.37,-2.17,9.30
4537,-15.35,12.53,3.07,1.36,-2.18,9.33
4542,-15.51,12.63,3.48,1.34,-2.19,9.35
4547,-15.71,12.84,4.28,1.33,-2.21,9.38
4552,-15.77,13.02,4.73,1.33,-2.23,9.40
4557,-15.85,13.31,5.27,1.33,-2.24,9.41
4562,-16.12,14.43,6.44,1.35,-2.27,9.43
4567,-16.39,15.20,6.92,1.38,-2.28,9.43
4572,-16.68,15.83,7.24,1.40,-2.29,9.43
4577,-17.07,16.68,7.62,1.44,-2.30,9.42
4582,-17.65,18.00,8.13,1.49,-2.31,9.40
4587,-17.79,18.40,8.30,1.50,-2.31,9.39
4592,-18.20,20.12,9.19,1.54,-2.33,9.35
4597,-18.37,21.13,9.81,1.56,-2.34,9.33
4602,-18.47,21.95,10.36,1.58,-2.36,9.31
4607,-18.66,23.57,11.50,1.61,-2.38,9.28
4612,-19.19,26.59,13.93,1.65,-2.38,9.25
4617,-19.83,28.71,16.04,1.67,-2.37,9.25
4622,-20.15,29.97,17.23,1.68,-2.36,9.26
4627,-20.25,30.26,17.54,1.68,-2.36,9.26
4632,-20.51,31.09,18.40,1.68,-2.35,9.27
4637,-20.74,32.58,19.60,1.68,-2.35,9.29
4643,-20.94,35.31,21.35,1.69,-2.35,9.31
4647,-20.95,37.92,22.75,1.72,-2.34,9.33
4652,-20.94,38.41,23.00,1.73,-2.34,9.34
4657,-20.89,39.59,23.56,1.74,-2.34,9.35
4662,-20.80,41.60,24.43,1.79,-2.32,9.37
4667,-20.71,44.41,25.54,1.84,-2.27,9.41
4672,-20.79,54.31,30.04,1.95,-2.06,9.56
4677,-20.87,56.31,31.13,1.96,-2.03,9.59
4682,-21.05,59.48,32.93,1.98,-1.98,9.64
4688,-22.00,66.98,37.79,2.01,-1.90,9.75
4692,-24.00,77.55,45.60,2.04,-1.82,9.93
4697,-25.51,82.97,50.15,2.04,-1.79,10.02
4702,-28.48,91.23,58.06,2.05,-1.78,10.16
4708,-32.29,99.23,67.02,2.03,-1.78,10.33
4712,-40.73,111.41,83.36,1.92,-1.80,10.56
4717,-45.41,116.18,91.06,1.82,-1.82,10.63
4722,-51.98,122.12,101.72,1.66,-1.86,10.71
4727,-64.56,130.63,121.90,1.27,-2.08,10.76
4732,-66.39,131.86,124.93,1.21,-2.13,10.76
4737,-75.47,138.78,142.40,0.86,-2.58,10.86
4743,-85.47,149.54,168.35,0.49,-3.68,11.17
4747,-86.36,152.48,173.43,0.50,-4.00,11.32
4752,-86.31,155.26,176.90,0.56,-4.26,11.46
4757,-83.98,161.79,182.05,0.82,-4.75,11.79
4762,-77.77,168.16,183.85,1.36,-5.13,12.15
4767,-58.80,173.61,179.03,2.56,-5.34,12.51
4772,-49.82,175.66,175.21,3.13,-5.40,12.60
4777,-47.18,175.65,173.81,3.29,-5.40,12.62
4782,-41.55,174.34,170.14,3.64,-5.36,12.66
4787,-31.40,169.82,162.13,4.26,-5.19,12.70
4792,-12.58,150.84,142.92,5.46,-4.68,12.71
4797,0.90,110.72,120.92,6.29,-3.97,12.58
4802,6.98,17.23,94.18,6.66,-2.83,11.27
4808,6.81,-1.12,90.75,6.66,-2.66,10.84
4812,6.01,-33.90,86.23,6.62,-2.42,9.94
4817,2.09,-92.56,82.29,6.36,-2.30,7.77
4823,1.32,-103.42,82.78,6.25,-2.55,7.36
4827,0.70,-108.85,83.89,6.08,-3.22,7.31
4832,0.59,-109.49,84.21,6.04,-3.43,7.34
4837,0.52,-109.86,84.41,6.01,-3.57,7.36
4843,0.34,-110.73,84.82,5.94,-3.90,7.44
4847,-0.14,-112.30,83.81,5.73,-4.71,7.74
4852,-0.50,-114.05,81.77,5.59,-5.12,7.88
4857,-1.08,-119.28,76.26,5.39,-5.45,7.96
4862,-1.44,-122.18,73.04,5.29,-5.53,7.95
4867,-2.98,-130.78,63.19,4.98,-5.64,7.78
4872,-4.26,-135.96,56.72,4.77,-5.66,7.64
4877,-6.97,-143.31,45.78,4.42,-5.62,7.37
4883,-8.57,-146.20,40.14,4.25,-5.59,7.24
4888,-10.39,-148.50,34.67,4.10,-5.56,7.13
4892,-11.93,-150.04,30.68,3.99,-5.53,7.07
4897,-17.61,-153.71,17.59,3.71,-5.53,7.05
4902,-21.05,-155.07,10.39,3.59,-5.57,7.11
4908,-22.73,-155.63,6.94,3.54,-5.61,7.19
4912,-26.90,-156.79,-1.97,3.40,-5.78,7.49
4917,-28.41,-157.20,-5.56,3.35,-5.85,7.62
4922,-31.58,-157.93,-13.48,3.23,-6.00,7.93
4927,-33.46,-158.24,-18.39,3.16,-6.07,8.10
4932,-37.60,-158.64,-29.57,2.98,-6.20,8.49
4937,-39.12,-158.68,-33.84,2.91,-6.24,8.64
4943,-40.87,-158.68,-39.09,2.81,-6.27,8.82
4947,-43.82,-158.55,-48.91,2.55,-6.31,9.14
4953,-45.17,-158.33,-54.07,2.37,-6.33,9.29
4958,-45.97,-157.94,-57.47,2.21,-6.36,9.38
4963,-46.45,-157.51,-59.54,2.11,-6.40,9.42
4967,-46.73,-156.98,-60.79,2.04,-6.44,9.44
4973,-47.11,-156.21,-62.40,1.96,-6.49,9.47
4978,-48.61,-154.07,-68.35,1.77,-6.66,9.53
4983,-49.76,-152.23,-73.55,1.65,-6.79,9.58
4987,-51.44,-149.29,-82.43,1.49,-7.02,9.66
4992,-52.74,-145.52,-92.11,1.33,-7.27,9.73
4997,-53.05,-143.40,-96.49,1.27,-7.37,9.77
5002,-53.13,-140.35,-101.66,1.19,-7.48,9.81
5008,-52.66,-135.86,-106.79,1.11,-7.54,9.87
5013,-51.84,-131.27,-111.75,1.06,-7.51,9.93
5017,-51.02,-127.88,-115.98,1.03,-7.40,10.00
5022,-49.95,-123.99,-122.19,1.02,-7.21,10.11
5027,-49.36,-122.14,-126.55,1.01,-7.09,10.17
5032,-48.99,-121.01,-129.68,1.01,-7.00,10.22
5037,-47.24,-115.42,-146.87,0.98,-6.61,10.50
5043,-46.77,-113.57,-153.77,0.96,-6.49,10.64
5047,-46.61,-112.78,-156.98,0.94,-6.46,10.71
5052,-46.40,-111.37,-160.69,0.89,-6.38,10.81
5057,-46.26,-110.06,-162.25,0.82,-6.31,10.87
5062,-46.14,-108.99,-162.87,0.76,-6.23,10.91
5067,-45.73,-106.11,-162.35,0.61,-5.99,10.97
5072,-45.23,-103.49,-161.04,0.46,-5.74,11.01
5077,-44.83,-101.66,-159.84,0.34,-5.57,11.04
5082,-43.90,-98.58,-157.41,0.11,-5.30,11.10
5088,-42.97,-96.98,-155.61,-0.07,-5.17,11.14
5093,-42.44,-96.59,-154.41,-0.13,-5.08,11.15
5097,-41.89,-96.34,-153.02,-0.18,-5.00,11.15
5103,-39.30,-95.25,-144.72,-0.37,-4.46,11.11
5108,-38.56,-94.95,-141.94,-0.42,-4.28,11.10
5112,-37.07,-94.27,-136.09,-0.51,-3.91,11.06
5117,-34.08,-92.55,-124.11,-0.71,-3.22,10.93
5122,-31.91,-91.01,-114.75,-0.86,-2.74,10.79
5128,-30.86,-90.14,-109.79,-0.94,-2.53,10.69
5132,-27.86,-86.92,-93.86,-1.22,-1.97,10.25
5137,-27.34,-86.06,-90.63,-1.29,-1.88,10.11
5143,-26.18,-83.89,-82.94,-1.46,-1.73,9.79
5147,-25.90,-83.29,-81.44,-1.50,-1.70,9.71
5152,-25.85,-83.06,-81.72,-1.50,-1.68,9.68
5157,-25.41,-82.28,-79.38,-1.55,-1.67,9.58
5162,-21.74,-77.89,-53.31,-1.89,-1.71,9.25
5167,-20.86,-76.95,-46.30,-1.98,-1.74,9.17
5172,-18.76,-74.77,-29.87,-2.21,-1.83,9.00
5177,-18.30,-74.31,-26.47,-2.26,-1.85,8.96
5182,-17.67,-73.68,-21.89,-2.33,-1.89,8.91
5187,-16.13,-72.09,-10.54,-2.49,-2.01,8.79
5192,-12.67,-67.44,22.03,-2.93,-2.72,8.32
5197,-12.19,-66.86,26.18,-3.00,-3.00,7.93
5202,-12.03,-66.78,27.04,-3.02,-3.07,7.79
5208,-11.94,-66.75,27.53,-3.03,-3.11,7.70
5212,-11.85,-66.74,28.02,-3.03,-3.16,7.61
5217,-11.35,-66.69,30.12,-3.07,-3.36,7.13
5223,-9.31,-65.45,32.42,-3.09,-3.76,6.20
5227,-8.55,-64.85,32.79,-3.08,-3.84,6.00
5232,-7.23,-63.61,33.43,-3.08,-3.97,5.70
5237,-1.85,-54.94,35.42,-2.97,-4.26,5.09
5243,-0.89,-52.20,35.98,-2.93,-4.33,5.04
5247,0.36,-48.19,36.79,-2.87,-4.39,5.00
5252,1.67,-39.53,38.41,-2.70,-4.57,5.06
5257,2.23,-27.25,40.43,-2.42,-4.96,5.22
5262,2.20,-24.48,40.83,-2.34,-5.06,5.27
5267,1.96,-18.55,41.64,-2.16,-5.28,5.37
5272,1.78,-16.05,41.94,-2.08,-5.36,5.41
5277,1.55,-13.32,42.23,-1.97,-5.44,5.46
5283,0.81,-7.87,42.78,-1.70,-5.58,5.54
5288,0.04,-3.30,43.04,-1.47,-5.66,5.58
5292,-0.51,-0.93,43.09,-1.36,-5.69,5.59
5297,-1.93,4.14,43.05,-1.14,-5.73,5.60
5302,-5.07,12.98,42.48,-0.89,-5.75,5.59
5308,-7.50,19.24,41.62,-0.71,-5.77,5.61
5313,-9.37,24.13,40.61,-0.55,-5.80,5.64
5317,-10.76,28.21,39.48,-0.38,-5.85,5.68
5322,-12.87,36.00,36.46,-0.01,-6.07,5.84
5327,-13.92,42.16,33.33,0.35,-6.33,5.99
5332,-14.32,47.53,30.58,0.64,-6.55,6.13
5338,-14.49,53.24,27.63,0.93,-6.74,6.28
5342,-14.52,54.66,26.87,1.00,-6.79,6.31
5348,-14.55,56.71,25.76,1.07,-6.84,6.37
5352,-14.57,58.74,24.63,1.10,-6.81,6.44
5358,-14.52,61.89,22.79,1.18,-6.67,6.54
5362,-14.02,74.03,10.90,1.85,-5.78,7.07
5368,-13.64,75.71,8.45,2.09,-5.60,7.16
5372,-11.31,81.50,-0.72,3.10,-5.05,7.40
5377,-9.76,84.10,-5.81,3.78,-4.90,7.47
5382,-7.50,86.82,-11.58,4.55,-4.76,7.53
5387,-1.33,93.85,-27.50,5.89,-4.21,7.57
5392,6.45,101.51,-45.29,6.68,-3.15,7.57
5397,11.24,105.33,-54.15,6.82,-2.30,7.56
5402,19.10,111.62,-66.94,6.78,-0.79,7.55
5407,28.69,121.07,-78.59,6.15,1.14,7.56
5412,33.31,127.08,-80.91,5.63,2.04,7.58
5418,37.51,135.97,-77.45,4.90,2.77,7.64
5423,45.60,154.11,-51.57,3.68,3.20,7.82
5427,46.36,155.38,-48.22,3.61,3.20,7.83
5432,47.73,157.26,-42.39,3.51,3.19,7.86
5438,51.59,160.00,-26.90,3.34,3.08,7.91
5443,54.68,159.79,-16.04,3.29,2.97,7.93
5447,59.54,155.70,-5.51,3.34,2.83,7.94
5452,74.56,141.58,3.32,3.73,2.65,7.91
5458,76.18,140.45,3.51,3.78,2.64,7.90
5462,78.73,138.88,3.71,3.87,2.64,7.88
5467,86.60,135.70,3.83,4.15,2.62,7.82
5472,89.67,134.46,3.67,4.30,2.65,7.78
5477,93.34,133.22,3.19,4.47,2.71,7.72
5482,109.36,131.00,-0.56,5.06,3.26,7.72
5488,121.95,130.39,-4.92,5.47,4.21,7.95
5492,145.27,129.04,-15.19,5.97,6.54,8.78
5497,161.29,127.88,-23.38,6.18,8.47,9.64
5502,181.08,125.36,-32.10,6.23,10.81,10.76
5508,197.05,117.06,-35.83,5.80,13.40,12.22
5512,187.36,102.52,-26.07,4.73,14.23,12.97
5517,178.28,96.13,-21.42,4.38,14.30,13.10
5522,170.10,92.21,-18.36,4.18,14.20,13.11
5527,141.26,80.76,-9.37,3.65,13.38,12.87
5532,61.49,51.49,12.95,2.86,9.74,11.63
5538,55.43,49.63,14.78,2.83,9.26,11.50
5543,35.90,43.84,20.34,2.75,6.72,10.93
5547,32.98,42.88,20.63,2.74,5.15,10.66
5552,31.65,42.42,19.88,2.73,3.57,10.41
5558,34.76,43.33,16.57,2.68,2.10,10.13
5562,37.78,44.45,11.87,2.60,0.56,9.84
5567,32.63,44.17,7.99,2.47,-1.00,9.58
5573,29.19,43.80,6.67,2.42,-1.53,9.52
5577,22.29,41.85,5.08,2.35,-2.19,9.48
5582,15.48,38.95,3.71,2.29,-2.58,9.48
5587,8.89,34.10,2.16,2.26,-2.76,9.48
5592,3.34,28.32,1.38,2.24,-2.61,9.49
5597,2.53,27.12,1.53,2.23,-2.52,9.49
5603,2.02,26.42,1.67,2.22,-2.45,9.51
5608,1.62,25.85,1.79,2.21,-2.40,9.52
5612,0.75,23.85,2.17,2.18,-2.23,9.56
5617,0.53,22.99,2.32,2.15,-2.17,9.58
5623,-0.00,20.20,2.58,2.08,-2.04,9.61
5628,-0.22,18.43,2.63,2.02,-2.00,9.63
5632,-0.30,17.70,2.63,1.99,-1.99,9.63
5637,-0.35,17.25,2.63,1.97,-1.99,9.63
5643,-0.43,16.25,2.61,1.93,-1.99,9.63
5647,-0.49,14.55,2.56,1.88,-2.00,9.61
5652,-0.51,13.75,2.54,1.87,-2.01,9.58
5658,-0.37,12.42,2.51,1.89,-2.03,9.46
5662,-0.22,11.94,2.50,1.92,-2.05,9.40
5667,0.11,11.32,2.49,1.96,-2.06,9.32
5672,0.66,10.77,2.49,2.00,-2.08,9.23
5677,2.37,9.49,2.53,2.08,-2.10,9.14
5682,2.73,9.27,2.55,2.09,-2.10,9.14
5688,3.68,8.78,2.64,2.08,-2.09,9.19
5692,3.90,8.67,2.67,2.05,-2.08,9.22
5697,4.00,8.62,2.69,2.03,-2.08,9.24
5702,4.11,8.51,2.72,2.00,-2.07,9.27
5708,4.08,8.33,2.75,1.94,-2.05,9.32
5712,4.02,8.22,2.75,1.91,-2.04,9.35
5717,3.76,7.96,2.71,1.85,-2.00,9.38
5722,3.64,7.88,2.68,1.84,-1.98,9.39
5727,3.55,7.82,2.65,1.83,-1.97,9.39
5732,2.69,7.40,2.26,1.78,-1.91,9.41
5737,1.90,7.04,1.85,1.76,-1.88,9.41
5742,1.59,6.85,1.68,1.76,-1.88,9.41
5747,0.82,6.17,1.23,1.74,-1.88,9.40
5752,0.66,5.94,1.11,1.73,-1.88,9.40
5758,0.57,5.79,1.05,1.72,-1.89,9.40
5762,0.38,5.41,0.90,1.71,-1.89,9.41
5767,0.16,4.84,0.70,1.68,-1.90,9.42
5772,0.07,4.48,0.59,1.66,-1.91,9.43
5777,-0.00,3.51,0.38,1.63,-1.93,9.42
5782,0.01,3.32,0.37,1.63,-1.93,9.41
5787,0.01,3.21,0.36,1.62,-1.93,9.40
5792,0.04,2.79,0.33,1.62,-1.93,9.38
5797,0.09,2.38,0.33,1.62,-1.93,9.35
5802,0.12,2.26,0.33,1.62,-1.93,9.34
5808,0.55,1.19,0.57,1.65,-1.93,9.30
5812,0.60,1.12,0.61,1.65,-1.93,9.30
5817,0.66,1.03,0.65,1.66,-1.93,9.30
5823,0.79,0.88,0.76,1.68,-1.92,9.30
5827,0.99,0.70,0.93,1.72,-1.92,9.30
5832,1.09,0.62,1.03,1.73,-1.93,9.30
5837,1.32,0.52,1.25,1.77,-1.93,9.32
5842,1.38,0.44,1.33,1.78,-1.93,9.36
5847,1.40,0.38,1.37,1.78,-1.93,9.39
5852,1.42,0.32,1.39,1.79,-1.93,9.41
5859,1.43,0.27,1.41,1.79,-1.93,9.43
5862,1.43,0.24,1.41,1.79,-1.93,9.44
5867,1.39,0.14,1.39,1.78,-1.93,9.47
5872,1.38,0.11,1.38,1.78,-1.93,9.47
5877,1.36,0.05,1.35,1.77,-1.93,9.49
5882,1.29,-0.13,1.29,1.76,-1.93,9.53
5888,1.25,-0.25,1.25,1.75,-1.93,9.55
5892,1.14,-0.49,1.15,1.73,-1.93,9.58
5897,0.75,-1.14,0.85,1.68,-1.91,9.60
5902,0.65,-1.28,0.77,1.68,-1.91,9.59
5908,0.48,-1.49,0.64,1.67,-1.89,9.56
5912,0.32,-1.62,0.49,1.67,-1.87,9.53
5917,0.28,-1.65,0.45,1.67,-1.87,9.53
5922,0.24,-1.67,0.41,1.67,-1.86,9.53
5927,0.08,-1.70,0.35,1.67,-1.86,9.54
5932,-0.07,-1.75,0.28,1.68,-1.87,9.54
5937,-0.17,-1.78,0.21,1.70,-1.87,9.53
5942,-0.22,-1.79,0.15,1.70,-1.88,9.52
5947,-0.23,-1.80,0.13,1.70,-1.88,9.52
5952,-0.28,-1.81,0.06,1.71,-1.88,9.52
5958,-0.39,-1.82,-0.08,1.73,-1.89,9.50
5962,-0.46,-1.82,-0.18,1.75,-1.89,9.49
5967,-0.56,-1.82,-0.28,1.79,-1.88,9.45
5972,-0.67,-1.80,-0.37,1.83,-1.87,9.38
5977,-0.71,-1.78,-0.40,1.85,-1.87,9.34
5982,-0.76,-1.76,-0.42,1.88,-1.86,9.29
5988,-0.81,-1.72,-0.43,1.90,-1.86,9.25
5992,-0.83,-1.69,-0.44,1.90,-1.86,9.24
5997,-0.83,-1.66,-0.44,1.90,-1.87,9.23
6002,-0.83,-1.60,-0.44,1.88,-1.87,9.24
6008,-0.84,-1.55,-0.44,1.86,-1.87,9.25
6012,-0.85,-1.48,-0.44,1.85,-1.88,9.26
6018,-0.90,-1.37,-0.44,1.82,-1.88,9.27
6023,-0.95,-1.32,-0.44,1.80,-1.88,9.28
6027,-1.03,-1.28,-0.44,1.79,-1.88,9.29
6032,-1.11,-1.27,-0.45,1.79,-1.89,9.31
6037,-1.27,-1.28,-0.51,1.79,-1.91,9.35
6042,-1.34,-1.28,-0.55,1.80,-1.92,9.38
6047,-1.44,-1.30,-0.67,1.81,-1.93,9.41
6052,-1.49,-1.30,-0.76,1.82,-1.94,9.43
6058,-1.51,-1.31,-0.80,1.82,-1.94,9.43
6062,-1.54,-1.31,-0.87,1.82,-1.95,9.44
6067,-1.55,-1.30,-0.92,1.83,-1.95,9.43
6072,-1.54,-1.29,-0.90,1.83,-1.95,9.43
6077,-1.52,-1.27,-0.87,1.83,-1.95,9.43
6082,-1.47,-1.22,-0.77,1.83,-1.95,9.42
6088,-1.42,-1.19,-0.70,1.83,-1.95,9.42
6092,-1.34,-1.14,-0.62,1.82,-1.95,9.41
6097,-1.13,-1.05,-0.43,1.80,-1.94,9.40
6102,-1.06,-1.02,-0.37,1.79,-1.94,9.39
6107,-0.99,-1.00,-0.32,1.78,-1.94,9.39
6112,-0.92,-0.97,-0.27,1.76,-1.93,9.39
6117,-0.89,-0.95,-0.23,1.76,-1.93,9.40
6122,-0.87,-0.94,-0.21,1.75,-1.93,9.40
6127,-0.86,-0.86,-0.14,1.73,-1.92,9.42
6132,-0.88,-0.76,-0.12,1.71,-1.91,9.43
6137,-0.89,-0.70,-0.12,1.70,-1.91,9.43
6142,-0.94,-0.55,-0.11,1.68,-1.90,9.45
6147,-0.96,-0.46,-0.11,1.66,-1.90,9.47
6152,-0.99,-0.38,-0.11,1.65,-1.90,9.49
6157,-1.06,-0.22,-0.09,1.60,-1.90,9.57
6162,-1.09,-0.18,-0.08,1.59,-1.91,9.59
6167,-1.10,-0.16,-0.07,1.58,-1.91,9.61
6172,-1.10,-0.12,-0.06,1.57,-1.92,9.62
6177,-1.09,-0.10,-0.05,1.55,-1.93,9.63
6182,-1.07,-0.08,-0.04,1.54,-1.94,9.63
6187,-0.98,-0.05,-0.01,1.51,-1.96,9.64
6192,-0.90,-0.04,0.01,1.49,-1.97,9.64
6197,-0.87,-0.05,0.02,1.48,-1.97,9.64
6202,-0.82,-0.11,0.03,1.48,-1.98,9.63
6208,-0.77,-0.18,0.04,1.49,-1.98,9.62
6212,-0.64,-0.38,0.06,1.50,-1.98,9.58
6217,-0.47,-0.74,0.09,1.53,-1.98,9.51
6223,-0.37,-0.92,0.11,1.55,-1.98,9.49
6227,-0.35,-0.95,0.11,1.55,-1.98,9.48
6232,-0.32,-1.00,0.12,1.55,-1.98,9.48
6238,-0.23,-1.10,0.14,1.56,-1.97,9.46
6243,-0.04,-1.25,0.18,1.58,-1.96,9.43
6247,0.02,-1.30,0.19,1.58,-1.96,9.43
6252,0.04,-1.31,0.19,1.58,-1.96,9.42
6257,0.06,-1.32,0.19,1.58,-1.96,9.42
6262,0.08,-1.33,0.18,1.58,-1.96,9.42
6267,0.12,-1.34,0.18,1.58,-1.95,9.42
6272,0.15,-1.33,0.17,1.58,-1.95,9.42
6277,0.17,-1.31,0.17,1.57,-1.95,9.42
6282,0.20,-1.25,0.14,1.57,-1.93,9.42
6287,0.19,-1.19,0.10,1.56,-1.92,9.43
6292,0.16,-1.13,0.06,1.54,-1.92,9.43
6297,0.15,-1.07,0.02,1.52,-1.92,9.45
6302,0.16,-1.03,-0.03,1.51,-1.92,9.47
6307,0.16,-1.03,-0.04,1.50,-1.92,9.48
6312,0.17,-1.06,-0.08,1.50,-1.92,9.49
6317,0.18,-1.14,-0.12,1.51,-1.92,9.49
6323,0.18,-1.23,-0.16,1.52,-1.92,9.49
6327,0.21,-1.44,-0.27,1.57,-1.92,9.49
6332,0.26,-1.59,-0.43,1.63,-1.92,9.48
6337,0.28,-1.62,-0.49,1.64,-1.92,9.47
6342,0.30,-1.64,-0.54,1.65,-1.92,9.47
6347,0.34,-1.66,-0.62,1.66,-1.92,9.46
6352,0.42,-1.68,-0.73,1.67,-1.92,9.43
6357,0.47,-1.67,-0.78,1.67,-1.92,9.41
6362,0.51,-1.66,-0.82,1.67,-1.92,9.39
6367,0.56,-1.65,-0.85,1.66,-1.92,9.37
6372,0.62,-1.65,-0.89,1.64,-1.91,9.35
6377,0.66,-1.66,-0.92,1.63,-1.91,9.34
6382,0.68,-1.68,-0.95,1.62,-1.90,9.33
6387,0.69,-1.69,-0.99,1.61,-1.90,9.33
6392,0.70,-1.71,-1.08,1.61,-1.90,9.33
6397,0.70,-1.72,-1.19,1.60,-1.90,9.34
6403,0.70,-1.73,-1.38,1.59,-1.89,9.35
6408,0.69,-1.74,-1.48,1.59,-1.89,9.36
6412,0.69,-1.74,-1.53,1.58,-1.89,9.36
6417,0.69,-1.74,-1.59,1.57,-1.90,9.38
6423,0.69,-1.73,-1.63,1.56,-1.90,9.39
6427,0.71,-1.69,-1.67,1.55,-1.90,9.42
6432,0.75,-1.63,-1.66,1.55,-1.91,9.45
6437,0.77,-1.58,-1.65,1.55,-1.92,9.46
6443,0.77,-1.55,-1.63,1.55,-1.92,9.47
6447,0.80,-1.46,-1.57,1.54,-1.92,9.49
6452,0.83,-1.37,-1.53,1.54,-1.93,9.50
6457,0.89,-1.22,-1.47,1.53,-1.93,9.51
6462,1.03,-0.97,-1.35,1.53,-1.92,9.52
6467,1.09,-0.84,-1.27,1.54,-1.92,9.52
6472,1.15,-0.71,-1.18,1.54,-1.92,9.52
6477,1.24,-0.47,-1.00,1.55,-1.92,9.53
6482,1.31,-0.17,-0.78,1.55,-1.92,9.53
6488,1.33,-0.05,-0.70,1.55,-1.93,9.53
6492,1.32,0.18,-0.59,1.57,-1.94,9.53
6497,1.30,0.29,-0.56,1.59,-1.94,9.53
6502,1.28,0.37,-0.55,1.61,-1.95,9.53
6507,1.21,0.50,-0.61,1.65,-1.95,9.52
6512,1.13,0.56,-0.76,1.69,-1.95,9.52
6517,1.07,0.48,-0.88,1.73,-1.93,9.50
6522,1.03,0.41,-0.91,1.76,-1.92,9.48
6527,0.93,0.19,-0.89,1.83,-1.88,9.45
6532,0.93,0.24,-0.86,1.83,-1.85,9.48
6537,1.00,0.43,-0.85,1.82,-1.83,9.52
6542,1.09,0.71,-0.84,1.79,-1.81,9.56
6547,1.14,0.92,-0.84,1.77,-1.81,9.59
6553,1.18,1.15,-0.83,1.75,-1.81,9.61
6557,1.14,1.48,-0.80,1.71,-1.85,9.68
6562,1.09,1.57,-0.80,1.70,-1.89,9.74
6567,1.06,1.59,-0.81,1.70,-1.92,9.79
6573,1.02,1.56,-0.83,1.70,-1.97,9.85
6578,1.02,1.52,-0.84,1.71,-1.98,9.84
6582,1.02,1.42,-0.85,1.72,-1.99,9.81
6587,0.97,1.16,-0.76,1.76,-2.00,9.66
6592,0.93,0.99,-0.65,1.79,-2.00,9.54
6597,0.88,0.82,-0.47,1.83,-2.00,9.42
6602,0.80,0.63,-0.15,1.89,-1.98,9.29
6607,0.73,0.56,0.07,1.93,-1.96,9.24
6612,0.63,0.52,0.30,1.99,-1.95,9.22
6617,0.38,0.49,0.60,2.09,-1.91,9.23
6623,0.02,0.47,0.79,2.17,-1.89,9.25
6627,-0.38,0.45,0.91,2.23,-1.87,9.28
6632,-0.87,0.42,0.96,2.26,-1.85,9.30
6637,-1.13,0.41,0.97,2.26,-1.85,9.31
6642,-1.46,0.39,0.97,2.26,-1.85,9.32
6647,-2.18,0.37,0.94,2.21,-1.88,9.33
6652,-2.39,0.37,0.94,2.18,-1.89,9.33
6657,-2.58,0.38,0.94,2.16,-1.91,9.33
6662,-2.72,0.40,0.95,2.13,-1.93,9.33
6667,-2.80,0.44,0.96,2.11,-1.94,9.32
6672,-2.84,0.49,0.98,2.09,-1.95,9.31
6677,-2.84,0.63,1.00,2.06,-1.97,9.29
6682,-2.82,0.72,1.03,2.05,-1.98,9.29
6688,-2.80,0.77,1.09,2.05,-1.98,9.29
6693,-2.74,0.89,1.27,2.04,-1.99,9.29
6697,-2.67,1.00,1.55,2.04,-1.99,9.29
6703,-2.60,1.09,1.80,2.03,-1.99,9.29
6707,-2.40,1.32,2.40,2.02,-1.97,9.30
6712,-2.26,1.44,2.71,2.02,-1.96,9.31
6717,-2.19,1.50,2.87,2.02,-1.95,9.32
6723,-2.04,1.57,3.15,2.02,-1.94,9.33
6727,-1.88,1.61,3.40,2.02,-1.94,9.36
6732,-1.76,1.63,3.58,2.01,-1.94,9.38
6737,-1.41,1.67,4.06,2.01,-1.94,9.41
6743,-1.23,1.70,4.33,2.02,-1.94,9.42
6747,-1.13,1.72,4.50,2.02,-1.93,9.41
6752,-1.05,1.74,4.70,2.04,-1.93,9.41
6757,-1.01,1.77,4.88,2.05,-1.94,9.41
6762,-0.99,1.79,4.97,2.05,-1.94,9.41
6767,-1.00,1.87,5.05,2.05,-1.94,9.41
6772,-1.02,1.97,5.05,2.05,-1.94,9.40
6777,-1.05,2.17,4.97,2.04,-1.94,9.39
6782,-1.13,2.46,4.81,2.02,-1.94,9.37
6787,-1.22,2.65,4.67,2.01,-1.93,9.37
6792,-1.33,2.80,4.53,2.01,-1.93,9.36
6797,-1.85,3.22,4.07,1.99,-1.92,9.36
6803,-2.24,3.44,3.78,1.98,-1.92,9.36
6808,-2.54,3.59,3.58,1.97,-1.91,9.36
6812,-2.94,3.78,3.35,1.97,-1.91,9.35
6817,-3.22,3.92,3.19,1.97,-1.90,9.34
6823,-3.42,4.02,3.11,1.97,-1.90,9.33
6827,-3.93,4.29,3.10,1.97,-1.90,9.28
6832,-4.11,4.43,3.19,1.97,-1.89,9.26
6837,-4.23,4.56,3.35,1.97,-1.90,9.24
6843,-4.40,4.75,3.55,1.97,-1.90,9.22
6847,-4.63,5.03,3.78,1.97,-1.92,9.20
6852,-4.78,5.23,3.90,1.97,-1.93,9.19
6857,-5.13,5.76,4.09,1.97,-1.97,9.17
6862,-5.40,6.15,4.16,1.97,-2.00,9.17
6867,-5.69,6.51,4.18,1.97,-2.02,9.18
6872,-6.15,7.00,4.17,1.95,-2.05,9.20
6877,-6.93,7.66,4.10,1.92,-2.07,9.24
6882,-7.28,7.97,4.06,1.91,-2.07,9.25
6887,-7.76,8.45,3.98,1.89,-2.08,9.26
6892,-9.78,10.53,3.45,1.84,-2.04,9.30
6897,-10.34,10.92,3.32,1.82,-2.02,9.31
6902,-10.77,11.17,3.24,1.81,-2.01,9.32
6908,-10.89,11.23,3.22,1.81,-2.01,9.32
6912,-11.07,11.33,3.20,1.81,-2.01,9.32
6917,-11.58,11.60,3.17,1.79,-2.00,9.33
6923,-12.49,12.03,3.28,1.78,-2.01,9.34
6927,-12.97,12.24,3.39,1.78,-2.01,9.34
6932,-14.00,12.70,3.71,1.78,-2.02,9.34
6937,-14.78,13.00,3.94,1.77,-2.03,9.34
6942,-15.03,13.10,4.01,1.77,-2.03,9.35
6947,-15.24,13.20,4.08,1.77,-2.03,9.35
6953,-16.31,13.58,4.36,1.76,-2.04,9.35
6958,-16.65,13.66,4.44,1.76,-2.04,9.35
6963,-17.68,13.88,4.73,1.75,-2.05,9.36
6967,-19.83,14.25,5.70,1.74,-2.05,9.37
6973,-20.33,14.36,6.05,1.74,-2.05,9.37
6977,-20.89,14.55,6.52,1.74,-2.05,9.37
6983,-21.48,14.86,7.13,1.74,-2.05,9.36
6987,-22.24,15.35,7.98,1.75,-2.05,9.34
6992,-22.64,15.64,8.45,1.76,-2.07,9.32
6997,-22.98,15.96,8.73,1.78,-2.08,9.30
7002,-23.09,16.09,8.78,1.79,-2.10,9.29
7007,-23.46,16.48,8.93,1.83,-2.13,9.26
7012,-24.03,17.30,9.31,1.87,-2.15,9.24
7017,-24.68,18.84,10.06,1.92,-2.17,9.22
7023,-25.28,21.47,11.58,1.95,-2.19,9.23
7028,-25.73,25.40,13.87,1.98,-2.21,9.25
7032,-25.89,28.01,15.42,1.99,-2.23,9.27
7037,-26.06,32.41,18.14,2.01,-2.26,9.30
7042,-26.20,42.68,25.17,2.09,-2.30,9.37
7048,-26.24,49.33,29.90,2.16,-2.31,9.40
7052,-26.26,53.14,32.67,2.21,-2.29,9.42
7058,-26.29,58.55,36.41,2.29,-2.24,9.45
7062,-26.31,62.08,38.78,2.34,-2.19,9.46
7067,-26.34,66.27,41.34,2.41,-2.11,9.47
7072,-26.37,73.01,43.64,2.52,-1.96,9.50
7077,-26.53,81.12,45.18,2.62,-1.82,9.57
7082,-27.34,90.52,46.43,2.70,-1.71,9.68
7088,-28.07,96.35,47.89,2.74,-1.67,9.76
7093,-29.47,103.11,51.24,2.77,-1.62,9.86
7097,-31.18,109.48,55.56,2.78,-1.59,9.95
7102,-35.96,121.72,67.83,2.72,-1.56,10.13
7107,-41.49,131.45,81.30,2.54,-1.54,10.28
7112,-58.53,151.57,116.97,1.58,-1.56,10.82
7117,-63.45,156.24,127.05,1.23,-1.65,11.14
7122,-67.19,159.62,135.58,0.93,-1.79,11.48
7127,-69.42,163.01,146.11,0.62,-2.26,12.04
7132,-66.50,165.68,156.61,0.67,-3.34,12.76
7137,-55.84,167.14,162.86,1.49,-4.58,13.33
7142,-51.38,167.48,163.54,1.88,-4.90,13.47
7147,-30.37,167.81,161.19,3.97,-5.92,13.82
7153,-21.58,167.70,158.71,4.75,-6.17,13.90
7158,-10.43,165.09,153.25,5.73,-6.28,13.91
7163,8.21,152.52,138.69,7.00,-5.94,13.66
7167,31.43,103.76,105.53,7.25,-3.69,12.26
7173,35.69,73.81,91.27,6.78,-2.30,11.27
7177,36.30,57.97,85.26,6.45,-1.62,10.74
7182,35.27,39.06,80.05,6.12,-1.01,10.20
7188,31.34,10.24,74.51,5.65,-0.54,9.54
7193,25.03,-25.61,74.05,5.31,-1.00,9.34
7197,21.87,-42.99,75.52,5.24,-1.68,9.38
7202,18.20,-65.19,80.50,5.23,-3.22,9.58
7207,16.73,-75.17,83.45,5.24,-4.27,9.74
7212,16.16,-79.63,84.38,5.27,-4.98,9.83
7217,15.56,-84.75,82.55,5.30,-5.79,9.86
7222,15.32,-87.52,78.85,5.26,-6.19,9.74
7228,15.03,-90.24,74.56,5.18,-6.49,9.55
7232,13.01,-99.32,64.01,4.81,-6.95,8.72
7237,10.98,-105.28,57.63,4.52,-7.11,8.13
7242,8.63,-110.29,52.47,4.26,-7.20,7.62
7247,4.95,-116.11,45.78,3.92,-7.25,7.04
7253,1.85,-119.50,40.29,3.70,-7.25,6.72
7257,-3.63,-123.09,31.12,3.40,-7.23,6.51
7262,-7.26,-123.95,24.79,3.26,-7.19,6.64
7267,-10.72,-123.99,18.52,3.17,-7.15,6.80
7273,-12.41,-123.80,15.28,3.15,-7.12,6.91
7277,-15.87,-123.53,8.62,3.09,-7.05,7.09
7282,-20.62,-123.43,-0.45,3.00,-6.93,7.24
7288,-25.21,-123.41,-9.09,2.89,-6.77,7.36
7293,-34.12,-123.83,-25.14,2.59,-6.40,7.62
7297,-38.18,-124.09,-32.04,2.43,-6.21,7.76
7302,-40.03,-124.22,-35.03,2.34,-6.12,7.84
7307,-43.59,-124.49,-40.73,2.18,-5.92,8.02
7312,-45.96,-124.67,-44.56,2.06,-5.73,8.17
7317,-47.65,-124.76,-47.21,1.98,-5.56,8.31
7323,-49.34,-124.67,-51.74,1.89,-5.27,8.53
7327,-50.50,-124.35,-58.03,1.78,-4.86,8.85
7332,-50.81,-124.17,-60.76,1.73,-4.74,8.99
7337,-51.07,-123.99,-63.25,1.68,-4.63,9.13
7342,-51.30,-123.81,-66.04,1.63,-4.53,9.27
7347,-51.74,-123.46,-72.02,1.49,-4.33,9.60
7353,-51.94,-123.28,-75.38,1.40,-4.23,9.79
7358,-52.09,-123.00,-82.07,1.18,-3.98,10.15
7362,-52.07,-122.91,-85.21,1.03,-3.83,10.29
7367,-51.95,-122.90,-87.21,0.89,-3.72,10.36
7374,-50.80,-122.92,-89.23,0.63,-3.59,10.39
7377,-50.52,-122.92,-89.32,0.61,-3.59,10.38
7382,-49.89,-122.94,-89.38,0.57,-3.61,10.36
7387,-43.43,-123.03,-89.07,0.44,-3.88,10.21
7392,-42.24,-123.05,-89.01,0.43,-3.93,10.18
7397,-41.58,-123.06,-88.97,0.42,-3.96,10.16
7402,-35.16,-123.21,-88.58,0.35,-4.33,9.84
7407,-34.68,-123.23,-88.55,0.33,-4.39,9.79
7412,-33.87,-122.95,-88.52,0.29,-4.63,9.56
7417,-33.60,-122.44,-88.51,0.25,-4.87,9.34
7423,-33.57,-122.02,-88.48,0.22,-5.05,9.18
7428,-33.68,-120.99,-88.43,0.19,-5.29,8.93
7432,-33.44,-117.14,-88.62,0.11,-5.93,8.39
7437,-33.34,-114.84,-88.79,0.07,-6.17,8.20
7442,-33.25,-112.00,-89.08,0.05,-6.32,8.12
7447,-33.36,-105.42,-89.98,0.01,-6.60,7.96
7453,-33.59,-100.84,-90.68,-0.02,-6.69,7.93
7457,-33.93,-98.38,-91.46,-0.03,-6.73,7.91
7462,-35.39,-92.25,-94.69,-0.06,-6.79,7.89
7467,-41.70,-84.10,-109.32,-0.13,-6.70,7.91
7472,-45.78,-83.07,-118.80,-0.15,-6.57,7.93
7477,-46.64,-82.75,-121.26,-0.16,-6.50,7.95
7482,-48.75,-82.04,-126.69,-0.18,-6.28,8.02
7488,-49.43,-81.18,-129.19,-0.19,-6.15,8.08
7494,-50.79,-75.11,-135.04,-0.24,-5.48,8.50
7497,-52.01,-69.10,-138.10,-0.29,-4.78,9.02
7502,-52.48,-67.45,-138.83,-0.31,-4.51,9.19
7507,-53.90,-62.86,-138.85,-0.38,-3.67,9.70
7513,-54.28,-61.74,-138.42,-0.40,-3.46,9.82
7517,-54.89,-59.95,-137.10,-0.46,-3.21,10.00
7522,-55.22,-57.41,-132.41,-0.61,-2.91,10.26
7527,-55.06,-57.25,-131.95,-0.62,-2.88,10.28
7532,-51.31,-56.44,-127.00,-0.80,-2.31,10.38
7537,-47.59,-56.31,-124.36,-0.93,-1.74,10.37
7542,-40.68,-56.20,-119.22,-1.18,-0.75,10.27
7547,-32.26,-54.81,-102.17,-1.55,-0.10,10.01
7553,-31.93,-54.67,-100.90,-1.57,-0.09,10.00
7559,-31.67,-54.53,-99.80,-1.58,-0.09,9.99
7562,-31.45,-54.42,-98.80,-1.60,-0.09,9.98
7567,-29.58,-53.59,-90.95,-1.68,-0.13,9.89
7572,-29.11,-53.36,-88.73,-1.70,-0.14,9.87
7577,-24.46,-51.29,-68.20,-1.84,-0.27,9.61
7582,-21.14,-50.28,-57.10,-1.90,-0.37,9.42
7587,-20.17,-49.98,-54.12,-1.91,-0.40,9.36
7592,-17.84,-49.31,-47.79,-1.95,-0.47,9.21
7597,-12.80,-48.06,-36.41,-2.01,-0.64,8.86
7602,5.37,-40.11,5.78,-2.16,-1.52,7.75
7608,7.67,-38.62,11.06,-2.16,-1.65,7.66
7612,15.82,-30.02,31.20,-2.10,-2.40,7.32
7617,20.04,-19.96,45.34,-1.87,-3.56,7.06
7622,19.46,-15.93,49.79,-1.75,-4.04,6.93
7627,18.67,-10.41,54.15,-1.58,-4.68,6.68
7632,15.78,-1.44,55.76,-1.41,-4.98,6.10
7637,15.46,-0.19,55.76,-1.40,-4.99,6.05
7642,15.13,1.52,55.68,-1.37,-4.99,6.00
7647,15.03,2.37,55.60,-1.36,-4.98,5.99
7652,14.71,4.60,55.34,-1.31,-4.98,5.95
7657,12.23,18.37,54.27,-0.82,-5.20,5.78
7662,11.89,19.87,54.16,-0.70,-5.26,5.75
7667,11.89,20.97,54.19,-0.65,-5.30,5.74
7673,11.91,21.23,54.20,-0.63,-5.31,5.74
7677,11.90,21.46,54.20,-0.62,-5.32,5.75
7682,11.79,22.22,54.16,-0.57,-5.35,5.77
7687,11.11,24.68,53.91,-0.37,-5.43,5.83
7693,7.77,30.90,52.68,0.94,-5.71,6.09
7697,6.99,31.89,52.22,1.26,-5.72,6.13
7702,6.03,33.04,51.71,1.65,-5.73,6.17
7708,5.46,33.68,51.38,1.90,-5.74,6.19
7712,5.28,33.87,51.27,1.99,-5.74,6.20
7717,4.82,34.34,50.90,2.26,-5.74,6.21
7722,4.69,34.47,50.78,2.34,-5.74,6.21
7727,4.04,35.17,49.53,2.82,-5.74,6.20
7732,3.33,35.97,46.79,3.42,-5.72,6.15
7737,3.17,36.14,46.00,3.58,-5.71,6.14
7742,2.93,36.37,44.80,3.81,-5.70,6.11
7747,2.80,36.48,44.16,3.93,-5.70,6.10
7753,2.68,36.58,43.53,4.06,-5.69,6.09
7758,2.44,36.75,42.34,4.30,-5.68,6.07
7763,1.78,36.85,38.69,4.93,-5.56,5.97
7767,1.17,36.58,34.09,5.46,-5.22,5.78
7772,1.38,38.12,2.53,6.78,0.16,3.30
7777,3.79,40.33,-1.85,6.65,1.61,2.72
7782,7.70,43.08,-5.87,6.34,3.04,2.14
7787,11.89,45.88,-8.12,5.99,3.90,1.77
7792,19.09,53.03,-10.24,5.51,4.64,1.39
7797,34.71,76.41,-13.37,4.58,5.63,0.83
7802,37.57,81.53,-13.65,4.41,5.70,0.77
7808,44.17,101.65,-13.95,3.95,5.65,0.88
7812,51.79,130.51,-13.92,3.39,5.42,1.16
7817,66.70,207.33,-12.37,2.12,4.30,4.52
7823,65.98,211.83,-12.24,2.15,4.30,5.50
7827,73.54,197.95,-12.62,2.54,3.99,5.94
7832,79.06,192.20,-12.83,2.72,3.79,6.01
7837,107.33,155.14,-14.27,3.72,1.75,3.41
7842,110.18,151.53,-14.42,3.88,1.36,2.72
7847,112.68,147.21,-14.60,3.89,0.97,2.01
7852,114.07,145.24,-14.67,3.94,0.76,1.59
7857,115.52,143.70,-14.72,4.05,0.54,1.18
7862,117.02,142.43,-14.77,4.22,0.32,0.76
7867,118.59,141.34,-14.80,4.45,0.07,0.27
7873,120.78,138.21,-14.82,4.75,-0.22,-0.31
7877,121.23,126.64,-13.30,4.49,1.24,3.55
7882,120.84,121.58,-12.73,4.33,1.75,4.89
7887,120.19,115.37,-12.01,4.15,2.32,6.42
7893,118.95,106.29,-10.88,3.93,3.13,8.56
7897,96.28,56.08,-2.14,3.36,6.79,18.31
7903,78.64,41.47,2.06,3.42,7.60,20.17
7907,73.23,37.73,3.28,3.47,7.74,20.55
7912,65.24,33.24,5.03,3.56,7.81,20.81
7917,33.40,24.80,11.31,3.71,6.72,19.10
7923,19.65,22.62,13.79,3.75,5.92,18.02
7927,8.14,22.22,15.99,3.76,4.88,16.81
7932,-10.08,26.24,19.77,3.53,1.22,13.31
7937,-11.24,26.83,20.07,3.49,0.80,12.95
7942,-16.31,35.59,22.05,2.92,-3.67,9.93
7947,-14.99,37.45,21.50,2.75,-4.24,9.56
7952,-11.50,38.79,19.42,2.51,-4.26,9.38
7958,-10.21,38.73,18.54,2.45,-4.11,9.38
7962,-8.08,38.15,16.97,2.38,-3.78,9.36
7967,-7.24,37.65,16.32,2.37,-3.60,9.36
7973,-4.02,33.75,13.40,2.33,-2.74,9.32
7977,-3.37,32.26,12.59,2.33,-2.51,9.29
7982,-2.82,30.47,11.76,2.33,-2.26,9.26
7987,-2.76,23.17,8.48,2.37,-1.62,9.22
7992,-2.86,22.21,8.05,2.38,-1.58,9.23
7997,-3.04,21.21,7.61,2.39,-1.56,9.26
8003,-3.62,18.62,6.26,2.41,-1.65,9.49
8007,-3.61,18.38,5.96,2.38,-1.70,9.54
8012,-3.59,18.14,5.63,2.33,-1.74,9.57
8017,-3.58,18.13,5.59,2.33,-1.75,9.57
8023,-3.57,18.09,5.51,2.31,-1.75,9.58
8027,-3.45,16.83,4.98,2.23,-1.87,9.59
8032,-3.45,16.14,4.96,2.22,-1.94,9.59
8037,-3.44,15.90,4.93,2.22,-1.96,9.58
8043,-3.11,14.45,4.77,2.19,-2.09,9.57
8047,-2.96,14.19,4.69,2.18,-2.11,9.56
8052,-2.44,13.66,4.42,2.15,-2.13,9.55
8057,-2.11,13.16,4.21,2.12,-2.11,9.55
8062,-1.64,12.60,3.87,2.07,-2.08,9.54
8067,-1.44,12.27,3.69,2.05,-2.06,9.54
8073,-1.29,11.92,3.52,2.03,-2.03,9.54
8077,-1.15,11.55,3.35,2.02,-1.99,9.53
8082,-1.09,11.39,3.28,2.02,-1.98,9.53
8087,-1.07,11.34,3.26,2.01,-1.97,9.53
8093,-0.85,10.73,3.07,2.02,-1.92,9.52
8097,-0.81,10.62,3.05,2.03,-1.90,9.52
8102,-0.74,10.44,3.01,2.03,-1.89,9.51
8107,-0.70,10.33,2.98,2.03,-1.88,9.51
8112,-0.66,10.23,2.95,2.04,-1.87,9.51
8117,-0.61,10.09,2.90,2.04,-1.86,9.51
8122,-0.58,10.01,2.88,2.04,-1.85,9.51
8127,0.19,7.81,2.50,2.02,-1.81,9.49
8133,0.37,7.15,2.38,1.99,-1.82,9.49
8137,0.67,6.11,2.13,1.93,-1.88,9.48
8143,0.72,6.02,2.10,1.92,-1.89,9.49
8147,0.76,5.95,2.06,1.92,-1.90,9.50
8152,0.84,5.88,1.88,1.88,-1.90,9.62
8158,0.85,5.87,1.85,1.88,-1.89,9.63
8162,0.86,5.86,1.83,1.87,-1.89,9.64
8167,0.90,5.82,1.72,1.84,-1.87,9.66
8173,1.03,5.56,1.44,1.74,-1.82,9.67
8178,1.07,5.46,1.36,1.71,-1.81,9.67
8182,1.08,5.38,1.31,1.69,-1.81,9.67
8187,1.09,5.35,1.28,1.68,-1.80,9.67
8192,1.15,5.05,1.15,1.67,-1.80,9.66
8197,1.67,4.34,1.06,1.89,-1.83,9.47
8202,1.76,4.27,1.07,1.92,-1.84,9.46
8208,1.80,4.24,1.08,1.93,-1.84,9.45
8212,1.86,4.20,1.09,1.94,-1.84,9.44
8217,2.19,3.97,1.21,1.99,-1.84,9.42
8223,2.21,3.96,1.22,1.99,-1.84,9.42
8227,2.22,3.94,1.24,1.98,-1.84,9.43
8232,2.22,3.88,1.29,1.95,-1.84,9.45
8238,2.21,3.84,1.33,1.92,-1.83,9.48
8243,2.18,3.80,1.36,1.89,-1.83,9.50
8247,2.11,3.73,1.39,1.83,-1.83,9.54
8252,1.98,3.63,1.42,1.76,-1.82,9.58
8257,1.92,3.59,1.43,1.73,-1.82,9.59
8262,1.88,3.56,1.43,1.72,-1.82,9.60
8267,1.84,3.53,1.43,1.71,-1.82,9.61
8273,1.79,3.48,1.43,1.69,-1.82,9.62
8277,1.54,3.22,1.41,1.64,-1.81,9.67
8282,1.31,2.92,1.36,1.61,-1.81,9.70
8287,1.21,2.78,1.33,1.60,-1.81,9.71
8293,0.96,2.36,1.23,1.58,-1.81,9.74
8297,0.66,1.67,1.04,1.59,-1.80,9.75
8302,0.62,1.54,1.00,1.59,-1.80,9.75
8307,0.60,1.46,0.98,1.60,-1.80,9.75
8312,0.57,1.32,0.94,1.62,-1.80,9.74
8317,0.48,0.76,0.85,1.72,-1.80,9.66
8323,0.43,0.23,0.83,1.77,-1.78,9.53
8327,0.43,0.17,0.83,1.77,-1.78,9.53
8332,0.43,0.14,0.82,1.77,-1.78,9.52
8337,0.40,-0.22,0.75,1.78,-1.77,9.51
8342,0.39,-0.27,0.73,1.78,-1.77,9.51
8347,0.38,-0.34,0.70,1.78,-1.77,9.52
8353,0.37,-0.43,0.66,1.78,-1.77,9.51
8358,0.32,-0.82,0.37,1.80,-1.75,9.45
8362,0.31,-0.87,0.30,1.80,-1.74,9.43
8367,0.31,-0.98,0.16,1.80,-1.73,9.39
8372,0.31,-1.00,0.14,1.80,-1.73,9.38
8377,0.31,-1.01,0.12,1.81,-1.73,9.38
8382,0.31,-1.05,0.09,1.81,-1.73,9.36
8388,0.30,-1.11,0.07,1.81,-1.73,9.34
8392,0.30,-1.12,0.06,1.81,-1.73,9.33
8397,0.22,-1.32,0.08,1.81,-1.73,9.26
8403,0.18,-1.34,0.11,1.81,-1.74,9.25
8407,0.14,-1.35,0.13,1.81,-1.74,9.24
8412,0.04,-1.34,0.19,1.80,-1.74,9.23
8417,-0.31,-1.02,0.43,1.86,-1.76,9.25
8423,-0.32,-0.99,0.45,1.86,-1.76,9.25
8427,-0.37,-0.86,0.49,1.90,-1.76,9.26
8432,-0.38,-0.83,0.50,1.91,-1.76,9.27
8437,-0.40,-0.73,0.51,1.93,-1.76,9.28
8442,-0.41,-0.68,0.51,1.93,-1.76,9.29
8447,-0.42,-0.62,0.51,1.93,-1.76,9.30
8452,-0.43,-0.56,0.50,1.92,-1.76,9.30
8457,-0.43,-0.54,0.50,1.92,-1.76,9.31
8462,-0.52,-0.46,0.35,1.84,-1.77,9.35
8467,-0.55,-0.45,0.30,1.83,-1.77,9.36
8473,-0.56,-0.45,0.28,1.82,-1.77,9.36
8477,-0.57,-0.44,0.25,1.82,-1.77,9.37
8482,-0.61,-0.43,0.19,1.80,-1.78,9.38
8487,-0.66,-0.42,0.13,1.79,-1.79,9.40
8493,-0.67,-0.41,0.11,1.79,-1.79,9.40
8497,-0.91,-0.16,-0.15,1.76,-1.84,9.51
8503,-0.97,-0.03,-0.18,1.76,-1.85,9.55
8507,-0.99,0.04,-0.19,1.76,-1.86,9.56
8512,-1.04,0.21,-0.19,1.76,-1.88,9.60
8517,-1.06,0.26,-0.19,1.76,-1.89,9.61
8523,-1.07,0.31,-0.19,1.76,-1.90,9.62
8527,-1.08,0.42,-0.16,1.77,-1.91,9.63
8532,-1.07,0.49,-0.13,1.77,-1.92,9.64
8538,-0.94,0.49,-0.02,1.77,-1.90,9.62
8542,-0.85,0.44,0.03,1.77,-1.89,9.61
8547,-0.72,0.34,0.10,1.76,-1.88,9.59
8552,-0.57,0.22,0.19,1.74,-1.86,9.57
8557,-0.14,-0.07,0.47,1.61,-1.81,9.51
8562,-0.11,-0.07,0.52,1.62,-1.81,9.49
8567,-0.11,-0.07,0.54,1.63,-1.81,9.49
8572,-0.10,-0.07,0.55,1.64,-1.81,9.48
8577,-0.10,-0.07,0.57,1.65,-1.81,9.48
8582,-0.09,-0.07,0.61,1.67,-1.82,9.48
8587,-0.08,-0.07,0.62,1.67,-1.82,9.50
8592,-0.07,-0.06,0.62,1.66,-1.83,9.53
8597,-0.07,-0.06,0.61,1.65,-1.83,9.58
8602,-0.07,-0.09,0.53,1.62,-1.85,9.67
8607,-0.07,-0.11,0.45,1.60,-1.85,9.71
8612,-0.09,-0.15,0.38,1.59,-1.85,9.73
8617,-0.09,-0.16,0.35,1.58,-1.85,9.74
8622,-0.11,-0.18,0.30,1.57,-1.85,9.74
8628,-0.18,-0.27,0.11,1.55,-1.85,9.74
8632,-0.24,-0.30,0.04,1.53,-1.85,9.74
8637,-0.32,-0.33,-0.02,1.50,-1.86,9.71
8642,-0.38,-0.34,-0.03,1.47,-1.88,9.66
8647,-0.39,-0.34,-0.03,1.47,-1.88,9.65
8652,-0.38,-0.35,-0.02,1.46,-1.88,9.64
8657,-0.37,-0.35,-0.02,1.46,-1.89,9.63
8662,-0.36,-0.36,-0.01,1.46,-1.89,9.62
8667,-0.30,-0.38,0.01,1.46,-1.90,9.59
8673,-0.13,-0.40,0.05,1.46,-1.90,9.56
8677,0.08,-0.49,0.02,1.48,-1.89,9.54
8682,0.13,-0.53,0.01,1.49,-1.89,9.53
8688,0.16,-0.56,-0.00,1.50,-1.89,9.53
8693,0.24,-0.67,-0.04,1.52,-1.87,9.52
8697,0.35,-0.90,-0.17,1.56,-1.84,9.49
8702,0.37,-0.96,-0.21,1.56,-1.83,9.48
8707,0.38,-1.14,-0.37,1.54,-1.82,9.48
8712,0.37,-1.20,-0.44,1.53,-1.82,9.49
8717,0.37,-1.22,-0.46,1.53,-1.82,9.49
8722,0.37,-1.24,-0.49,1.53,-1.82,9.49
8727,0.38,-1.27,-0.52,1.53,-1.82,9.49
8732,0.38,-1.30,-0.56,1.53,-1.82,9.49
8738,0.40,-1.32,-0.59,1.52,-1.82,9.49
8742,0.41,-1.34,-0.62,1.52,-1.82,9.49
8747,0.45,-1.36,-0.67,1.53,-1.82,9.50
8752,0.47,-1.37,-0.67,1.53,-1.82,9.50
8758,0.50,-1.38,-0.69,1.53,-1.82,9.50
8762,0.55,-1.40,-0.72,1.54,-1.82,9.51
8767,0.64,-1.43,-0.77,1.55,-1.82,9.52
8772,0.91,-1.54,-0.90,1.60,-1.82,9.53
8778,0.95,-1.57,-0.93,1.61,-1.82,9.53
8782,1.06,-1.64,-1.03,1.67,-1.82,9.51
8788,1.14,-1.69,-1.14,1.72,-1.81,9.48
8792,1.17,-1.71,-1.17,1.74,-1.81,9.46
8797,1.15,-1.68,-1.21,1.74,-1.80,9.45
8802,1.09,-1.62,-1.23,1.71,-1.80,9.45
8807,1.07,-1.60,-1.23,1.70,-1.80,9.46
8812,1.05,-1.59,-1.24,1.70,-1.80,9.46
8817,0.96,-1.51,-1.24,1.67,-1.80,9.48
8823,0.91,-1.46,-1.25,1.65,-1.80,9.49
8827,0.82,-1.37,-1.27,1.62,-1.80,9.51
8832,0.75,-1.28,-1.30,1.58,-1.81,9.53
8837,0.73,-1.24,-1.32,1.56,-1.82,9.53
8842,0.70,-1.18,-1.35,1.53,-1.82,9.54
8847,0.67,-1.11,-1.39,1.49,-1.83,9.55
8852,0.66,-1.08,-1.41,1.47,-1.84,9.55
8857,0.65,-1.07,-1.41,1.47,-1.84,9.55
8862,0.65,-1.05,-1.43,1.45,-1.84,9.55
8867,0.64,-1.01,-1.45,1.43,-1.85,9.55
8872,0.74,1.04,-1.11,2.00,-1.89,9.64
8877,0.81,1.25,-1.35,2.22,-1.90,9.69
8882,0.82,1.27,-1.37,2.24,-1.90,9.70
8888,0.83,1.28,-1.39,2.25,-1.90,9.70
8893,0.83,1.30,-1.42,2.28,-1.90,9.71
8897,0.84,1.31,-1.43,2.29,-1.90,9.71
8902,0.84,1.33,-1.45,2.30,-1.90,9.71
8907,0.85,1.34,-1.47,2.32,-1.90,9.72
8912,0.85,1.36,-1.49,2.33,-1.91,9.72
8917,0.86,1.37,-1.50,2.34,-1.91,9.73
8922,0.86,1.37,-1.51,2.35,-1.91,9.73
8927,0.86,1.38,-1.52,2.36,-1.91,9.73
8932,0.87,1.39,-1.53,2.36,-1.91,9.73
8937,0.87,1.39,-1.54,2.37,-1.91,9.73
8942,0.88,1.41,-1.56,2.39,-1.91,9.74
8947,0.88,1.42,-1.57,2.40,-1.91,9.74
8952,0.88,1.43,-1.59,2.41,-1.91,9.74
8958,0.89,1.44,-1.60,2.42,-1.91,9.75
8962,0.89,1.45,-1.61,2.43,-1.91,9.75
8968,0.90,1.46,-1.64,2.44,-1.91,9.76
8973,0.91,1.48,-1.67,2.46,-1.91,9.76
8977,0.91,1.49,-1.68,2.47,-1.91,9.77
8982,0.91,1.50,-1.69,2.48,-1.91,9.77
8987,0.92,1.51,-1.71,2.48,-1.91,9.77
8992,0.92,1.51,-1.72,2.49,-1.91,9.77
8997,0.93,1.52,-1.73,2.50,-1.91,9.78
9002,0.93,1.53,-1.74,2.51,-1.91,9.78
9007,0.93,1.53,-1.75,2.51,-1.91,9.78
9012,0.93,1.54,-1.76,2.52,-1.91,9.78
9017,0.93,1.54,-1.77,2.52,-1.91,9.79
9022,0.97,1.61,-1.89,2.58,-1.92,9.81
9027,0.97,1.61,-1.91,2.59,-1.92,9.82
9032,0.98,1.62,-1.92,2.59,-1.92,9.82
9037,1.04,1.67,-2.18,2.62,-1.92,9.88
9042,1.04,1.67,-2.19,2.61,-1.92,9.88
9048,1.04,1.67,-2.19,2.61,-1.92,9.88
9052,1.04,1.67,-2.19,2.61,-1.92,9.88
9057,1.04,1.67,-2.20,2.61,-1.92,9.88
9062,1.04,1.67,-2.20,2.61,-1.92,9.88
9067,1.05,1.66,-2.23,2.60,-1.92,9.89
9073,1.07,1.61,-2.32,2.51,-1.92,9.91
9077,1.07,1.46,-2.39,2.32,-1.92,9.92
9082,1.05,1.25,-2.37,2.05,-1.92,9.91
9087,1.02,1.08,-2.30,1.85,-1.91,9.89
9093,0.94,0.76,-2.01,1.49,-1.91,9.82
9097,0.87,0.64,-1.66,1.39,-1.90,9.75
9103,0.83,0.71,-1.30,1.53,-1.90,9.67
9107,0.80,0.97,-0.92,1.92,-1.90,9.59
9112,-3.80,4.44,5.63,1.98,-1.90,9.34
9117,-4.44,4.83,5.38,1.96,-1.90,9.33
9122,-5.28,5.16,5.25,1.95,-1.89,9.32
9127,-5.55,5.32,5.24,1.95,-1.89,9.32
9132,-5.75,5.42,5.24,1.95,-1.90,9.32
9138,-5.87,5.48,5.24,1.95,-1.90,9.33
9143,-5.98,5.54,5.25,1.95,-1.90,9.33
9147,-6.16,5.66,5.26,1.95,-1.90,9.34
9152,-6.30,5.78,5.26,1.94,-1.90,9.34
9158,-6.56,6.04,5.28,1.94,-1.91,9.36
9162,-6.89,6.44,5.30,1.94,-1.91,9.38
9167,-7.42,7.09,5.31,1.92,-1.92,9.41
9172,-7.85,7.65,5.30,1.90,-1.92,9.44
9177,-8.48,8.67,5.15,1.86,-1.93,9.45
9182,-20.30,19.62,8.83,1.38,-1.94,9.67
9187,-23.39,21.89,12.54,1.49,-2.03,9.54
9192,-26.97,26.87,17.42,1.61,-2.16,9.38
9197,-28.16,29.19,19.22,1.65,-2.21,9.31
9202,-28.23,29.43,19.32,1.65,-2.22,9.31
9207,-29.48,33.21,21.27,1.67,-2.26,9.26
9212,-31.27,40.90,24.29,1.69,-2.33,9.17
9217,-32.89,53.52,25.83,1.87,-2.09,9.29
9223,-33.97,65.20,27.24,2.24,-1.61,9.39
9228,-34.25,73.46,29.88,2.43,-1.17,9.44
9232,-35.04,81.32,33.23,2.49,-0.90,9.56
9238,-36.29,88.74,37.16,2.51,-0.71,9.75
9242,-43.76,106.66,50.74,2.49,-0.45,10.47
9247,-46.09,110.08,54.38,2.47,-0.41,10.62
9252,-48.84,113.50,58.35,2.42,-0.38,10.78
9258,-51.76,116.54,62.32,2.35,-0.36,10.92
9262,-120.85,163.00,166.57,0.95,-5.81,11.06
9267,-116.70,165.49,166.45,1.09,-5.92,11.30
9273,-110.79,168.13,166.17,1.29,-5.99,11.63
9277,-94.38,172.09,164.54,1.80,-5.86,12.61
9282,-27.81,168.46,145.88,3.99,-4.24,16.58
9287,3.85,140.28,124.22,5.23,-3.09,17.40
9293,15.38,110.51,109.47,5.68,-2.47,16.76
9297,19.28,51.49,94.65,5.71,-1.98,12.26
9302,17.83,10.46,92.57,5.54,-1.86,9.25
9307,17.56,8.81,92.54,5.52,-1.86,8.94
9312,17.31,6.81,92.58,5.50,-1.89,8.60
9317,17.16,-3.12,92.80,5.44,-1.95,8.08
9322,20.97,-72.48,93.64,5.03,-2.93,7.09
9327,29.20,-110.96,93.54,4.30,-5.41,7.20
9332,32.67,-125.64,90.03,3.50,-7.50,6.94
9337,24.09,-133.84,56.95,2.63,-8.47,5.81
9342,20.23,-134.93,45.49,2.52,-8.47,5.59
9347,18.74,-135.36,41.56,2.48,-8.45,5.49
9352,17.99,-135.60,39.25,2.47,-8.44,5.44
9357,17.17,-135.37,36.54,2.45,-8.40,5.50
9362,15.99,-134.97,33.55,2.43,-8.36,5.59
9367,12.50,-134.00,25.97,2.37,-8.30,5.80
9372,8.43,-132.81,18.62,2.32,-8.22,6.05
9377,-4.64,-129.09,-3.52,2.16,-8.04,6.74
9382,-18.45,-125.75,-27.05,1.95,-7.83,7.29
9388,-38.20,-121.24,-64.47,1.35,-7.07,8.06
9392,-39.98,-120.07,-70.61,1.26,-6.82,8.26
9397,-41.24,-119.15,-75.33,1.18,-6.61,8.44
9402,-44.72,-116.48,-88.59,0.91,-5.96,9.18
9407,-48.33,-116.31,-102.21,0.09,-4.96,10.25
9412,-45.57,-117.04,-105.02,0.02,-5.00,10.02
9417,-40.70,-115.94,-106.05,0.14,-5.25,9.87
9423,-39.79,-115.38,-105.93,0.21,-5.41,9.82
9427,-39.39,-114.78,-105.92,0.26,-5.60,9.77
9432,-39.16,-113.89,-106.15,0.30,-5.88,9.71
9438,-39.12,-113.32,-106.41,0.31,-6.05,9.68
9442,-39.10,-112.46,-106.82,0.32,-6.26,9.67
9447,-43.28,-80.09,-117.63,-1.05,-2.58,10.06
9452,-40.94,-75.64,-116.11,-1.38,-1.23,10.25
9457,-22.48,-67.26,-88.75,-1.71,-0.15,10.12
9462,-21.75,-67.12,-87.08,-1.71,-0.22,10.06
9468,-16.74,-65.27,-75.81,-1.79,-0.40,9.89
9473,-10.01,-62.71,-57.18,-1.95,-0.71,9.44
9477,-3.50,-58.94,-34.95,-2.14,-0.98,8.95
9482,10.62,-44.92,10.88,-2.51,-1.85,8.18
9488,15.65,-37.49,26.70,-2.50,-2.98,7.65
9493,17.57,-28.85,39.73,-2.33,-4.23,6.03
9497,15.51,-19.60,43.90,-2.16,-4.65,5.55
9503,14.36,-14.29,44.49,-2.09,-4.79,5.53
9507,13.63,-10.83,44.77,-2.05,-4.87,5.53
9512,12.66,-6.31,45.07,-1.99,-4.97,5.53
9517,11.88,-2.65,45.30,-1.94,-5.06,5.53
9522,11.53,-0.92,45.37,-1.91,-5.10,5.53
9527,10.92,2.14,45.24,-1.85,-5.16,5.54
9532,9.85,7.05,44.84,-1.76,-5.27,5.57
9538,-3.38,58.55,34.32,0.09,-6.09,5.69
9542,-8.23,70.40,27.61,1.66,-5.44,5.14
9547,-10.68,72.29,19.12,3.72,-4.27,3.72
9552,-10.62,72.46,-9.72,8.53,-2.02,0.71
9558,38.11,98.95,-79.67,7.39,0.17,-0.19
9562,59.11,129.49,-51.86,3.34,1.89,0.04
9567,102.52,174.09,0.78,1.31,5.07,4.56
9573,115.71,183.75,10.92,1.42,4.59,7.03
9577,157.62,146.85,-36.50,1.18,0.19,11.55
9582,149.58,92.59,-39.28,1.12,-0.14,10.00
9587,68.74,30.12,-4.82,3.43,-0.95,3.01
9592,68.91,28.51,-5.22,3.48,-1.08,2.99
9597,67.85,26.72,-5.34,3.53,-1.31,3.27
9603,61.91,25.95,-3.60,3.54,-1.56,3.86
9608,-3.52,35.91,11.36,2.90,-6.32,8.39
9612,0.53,34.40,6.22,2.57,-4.73,8.94
9617,0.97,23.57,4.21,2.45,-2.00,9.22
9623,-0.90,21.89,4.05,2.45,-1.82,9.22
9628,-3.21,15.41,2.60,2.35,-2.03,9.27
9632,-2.84,14.53,2.55,2.33,-2.05,9.33
9637,-2.64,14.16,2.55,2.32,-2.06,9.35
9642,0.43,11.04,2.86,2.00,-2.13,9.55
9647,1.12,5.98,1.89,1.86,-1.95,9.53
9652,1.05,5.65,1.73,1.85,-1.95,9.51
9657,1.02,5.34,1.59,1.86,-1.95,9.49
9662,1.03,5.24,1.55,1.87,-1.95,9.49
9668,1.05,5.18,1.52,1.88,-1.95,9.49
9672,1.12,5.02,1.49,1.90,-1.94,9.48
9677,1.17,4.98,1.48,1.91,-1.94,9.48
9682,1.51,4.62,1.37,1.95,-1.92,9.52
9687,1.57,3.85,1.08,1.97,-1.90,9.64
9693,1.56,3.71,1.03,1.96,-1.89,9.65
9697,1.55,3.63,0.99,1.95,-1.89,9.65
9703,1.53,3.50,0.94,1.92,-1.89,9.65
9707,1.52,3.46,0.93,1.91,-1.89,9.65
9712,1.42,3.16,0.80,1.78,-1.90,9.61
9717,1.24,2.98,0.76,1.73,-1.91,9.58
9722,1.11,2.89,0.72,1.74,-1.93,9.58
9727,1.04,2.83,0.68,1.75,-1.94,9.59
9732,0.99,2.77,0.63,1.75,-1.95,9.60
9737,0.94,2.69,0.56,1.75,-1.96,9.62
9742,0.82,2.51,0.42,1.74,-1.97,9.65
9747,0.61,2.07,0.20,1.78,-1.97,9.66
9752,0.48,1.71,0.09,1.80,-1.96,9.61
9757,0.43,1.60,0.07,1.81,-1.96,9.59
9762,0.39,1.54,0.06,1.81,-1.95,9.57
9767,0.35,1.47,0.04,1.80,-1.95,9.55
9772,0.32,1.42,0.03,1.79,-1.94,9.53
9777,0.29,1.38,0.03,1.78,-1.94,9.52
9782,0.25,1.32,0.02,1.76,-1.93,9.51
9788,0.20,1.24,0.01,1.73,-1.92,9.49
9792,0.17,1.20,0.01,1.72,-1.91,9.48
9797,0.17,1.18,0.01,1.71,-1.91,9.47
9803,0.16,1.16,0.01,1.70,-1.91,9.47
9807,0.11,1.10,-0.01,1.68,-1.90,9.46
9812,0.12,1.10,-0.01,1.68,-1.91,9.47
9817,0.15,1.05,-0.01,1.66,-1.90,9.48
9822,0.17,1.00,-0.01,1.65,-1.90,9.48
9827,0.18,0.93,-0.01,1.63,-1.89,9.49
9832,0.25,0.74,0.15,1.52,-1.87,9.55
9838,0.37,0.86,0.41,1.55,-1.90,9.59
9842,0.81,0.94,0.80,1.59,-1.94,9.47
9847,0.92,0.95,0.87,1.58,-1.94,9.47
9852,0.98,0.95,0.91,1.59,-1.94,9.47
9858,1.08,0.94,0.99,1.60,-1.93,9.48
9862,1.17,0.94,1.06,1.61,-1.92,9.48
9867,-0.81,-0.13,-0.34,1.90,-1.90,9.50
9872,-0.79,-0.04,-0.33,1.92,-1.90,9.51
9877,-0.78,-0.02,-0.32,1.93,-1.90,9.51
9882,-0.72,0.05,-0.27,1.95,-1.90,9.52
9887,-0.72,0.06,-0.26,1.95,-1.90,9.52
9893,-0.71,0.07,-0.25,1.96,-1.90,9.52
9897,-0.71,0.07,-0.25,1.96,-1.90,9.52
9902,-0.70,0.08,-0.25,1.96,-1.90,9.52
9907,-0.70,0.09,-0.24,1.96,-1.90,9.52
9912,-0.69,0.11,-0.23,1.97,-1.90,9.53
9918,-0.62,0.20,0.12,2.00,-1.91,9.56
9922,-0.64,0.21,0.19,2.00,-1.91,9.56
9927,-0.66,0.21,0.26,2.00,-1.91,9.56
9932,-0.70,0.21,0.38,1.99,-1.91,9.55
9938,-0.73,0.21,0.43,1.99,-1.91,9.55
9942,-0.75,0.21,0.47,1.99,-1.91,9.55
9947,-0.76,0.21,0.49,1.98,-1.92,9.55
9952,-0.78,0.21,0.52,1.98,-1.92,9.55
9957,-0.79,0.21,0.54,1.98,-1.92,9.55
9962,-0.84,0.20,0.62,1.97,-1.92,9.55
9967,-0.86,0.20,0.65,1.96,-1.92,9.55
9972,-0.88,0.20,0.67,1.96,-1.92,9.55
9977,-0.89,0.20,0.70,1.95,-1.92,9.55
9982,-0.90,0.20,0.72,1.95,-1.92,9.55
9987,-0.92,0.20,0.74,1.94,-1.92,9.55
9992,-0.93,0.20,0.77,1.93,-1.92,9.55
9997,-0.94,0.20,0.78,1.93,-1.92,9.55
10002,-0.95,0.20,0.79,1.93,-1.92,9.55
10007,-0.96,0.20,0.80,1.92,-1.92,9.55
10012,-0.96,0.20,0.81,1.92,-1.92,9.55
10017,-0.97,0.20,0.82,1.92,-1.92,9.55
10023,-0.98,0.20,0.83,1.91,-1.92,9.55
10027,-0.98,0.20,0.83,1.91,-1.93,9.55
10032,-0.99,0.20,0.84,1.91,-1.93,9.55
10038,-1.00,0.20,0.85,1.90,-1.93,9.56
10043,-1.01,0.20,0.86,1.90,-1.93,9.56
10047,-1.02,0.19,0.87,1.89,-1.93,9.56
10052,-1.03,0.19,0.88,1.88,-1.93,9.56
10057,-1.04,0.19,0.88,1.88,-1.93,9.57
10062,-1.05,0.19,0.89,1.87,-1.93,9.57
10067,-1.05,0.19,0.89,1.87,-1.93,9.57
10072,-1.06,0.19,0.90,1.86,-1.93,9.57
10077,-1.07,0.19,0.91,1.85,-1.93,9.58
10082,-1.08,0.18,0.91,1.82,-1.93,9.59
10087,-1.08,0.17,0.90,1.79,-1.93,9.60
10093,-1.08,0.16,0.89,1.78,-1.93,9.60
10097,-1.08,0.15,0.89,1.76,-1.93,9.60
10102,-1.03,0.10,0.80,1.71,-1.93,9.60
10107,-0.86,0.00,0.58,1.64,-1.92,9.60
10112,-0.76,-0.06,0.46,1.60,-1.91,9.59
10117,-0.65,-0.13,0.34,1.55,-1.90,9.58
10122,-0.61,-0.15,0.29,1.54,-1.89,9.57
10127,-0.58,-0.17,0.27,1.52,-1.89,9.57
10132,-0.56,-0.18,0.26,1.51,-1.89,9.57
10138,-0.54,-0.19,0.24,1.50,-1.89,9.57
10142,-0.52,-0.20,0.22,1.50,-1.88,9.57
10147,-0.51,-0.20,0.21,1.49,-1.88,9.57
10152,-0.50,-0.21,0.21,1.49,-1.88,9.57
10157,-0.50,-0.21,0.20,1.48,-1.88,9.57
10162,-0.49,-0.22,0.19,1.48,-1.88,9.57
10167,-0.49,-0.22,0.19,1.48,-1.88,9.57
10172,-0.48,-0.22,0.18,1.48,-1.88,9.56
10177,-0.48,-0.23,0.18,1.47,-1.88,9.56
10182,-0.48,-0.23,0.17,1.47,-1.88,9.56
10187,-0.47,-0.23,0.17,1.47,-1.87,9.56
10192,-0.47,-0.24,0.16,1.46,-1.87,9.56
10197,-0.47,-0.25,0.16,1.46,-1.87,9.56
10203,-0.47,-0.26,0.15,1.46,-1.86,9.56
10207,-0.47,-0.26,0.14,1.46,-1.86,9.56
10212,-0.47,-0.27,0.14,1.46,-1.86,9.56
10217,-0.49,-0.30,0.14,1.48,-1.86,9.55
10223,-0.51,-0.32,0.14,1.49,-1.86,9.55
10227,-0.57,-0.41,0.13,1.54,-1.86,9.53
10232,-0.77,-0.67,0.03,1.66,-1.87,9.48
10237,-0.77,-0.67,0.03,1.66,-1.87,9.48
10242,-0.77,-0.68,0.03,1.66,-1.87,9.48
10247,-0.77,-0.68,0.02,1.66,-1.87,9.48
10252,-0.78,-0.69,0.02,1.67,-1.87,9.48
10257,-0.78,-0.69,0.02,1.67,-1.87,9.47
10262,-0.79,-0.70,0.02,1.67,-1.87,9.47
10267,-0.82,-0.73,-0.01,1.68,-1.87,9.47
10272,-1.00,-0.87,-0.11,1.64,-1.89,9.49
10277,-1.01,-0.87,-0.10,1.63,-1.89,9.49
10282,-0.98,-0.83,-0.12,1.50,-1.91,9.48
10287,-0.97,-0.83,-0.13,1.49,-1.91,9.47
10293,-0.94,-0.83,-0.15,1.47,-1.91,9.47
10297,-0.92,-0.83,-0.16,1.46,-1.92,9.47
10304,-0.91,-0.83,-0.17,1.45,-1.92,9.47
10307,-0.89,-0.82,-0.18,1.44,-1.92,9.46
10312,-0.85,-0.82,-0.19,1.43,-1.92,9.46
10318,-0.84,-0.82,-0.20,1.43,-1.92,9.46
10322,-0.83,-0.82,-0.20,1.42,-1.92,9.45
10327,-0.75,-0.81,-0.22,1.41,-1.92,9.44
10332,-0.73,-0.81,-0.22,1.41,-1.92,9.43
10338,-0.72,-0.81,-0.22,1.41,-1.92,9.43
10342,-0.70,-0.81,-0.21,1.40,-1.93,9.42
10347,-0.68,-0.80,-0.21,1.40,-1.93,9.42
10352,-0.66,-0.80,-0.21,1.40,-1.93,9.42
10357,-0.62,-0.79,-0.19,1.40,-1.93,9.40
10362,-0.58,-0.79,-0.19,1.40,-1.93,9.40
10367,-0.55,-0.79,-0.18,1.40,-1.93,9.39
10372,-0.53,-0.79,-0.18,1.40,-1.93,9.39
10377,-0.49,-0.79,-0.16,1.41,-1.93,9.38
10382,-0.32,-0.80,-0.13,1.41,-1.94,9.37
10387,-0.24,-0.81,-0.12,1.41,-1.94,9.36
10392,-0.16,-0.81,-0.11,1.42,-1.95,9.36
10397,-0.08,-0.82,-0.11,1.42,-1.95,9.35
10403,0.14,-0.84,-0.08,1.43,-1.95,9.34
10407,0.20,-0.85,-0.08,1.43,-1.96,9.34
10412,0.24,-0.86,-0.08,1.43,-1.96,9.34
10417,0.28,-0.86,-0.07,1.43,-1.96,9.34
10422,0.37,-0.88,-0.07,1.44,-1.96,9.34
10428,0.40,-0.89,-0.07,1.44,-1.96,9.34
10432,0.44,-0.89,-0.06,1.44,-1.96,9.34
10438,0.47,-0.90,-0.06,1.44,-1.96,9.34
10443,0.51,-0.91,-0.06,1.45,-1.96,9.34
10447,0.60,-0.93,-0.05,1.45,-1.96,9.34
10453,0.86,-1.02,-0.03,1.48,-1.96,9.34
10457,1.07,-1.12,-0.02,1.51,-1.96,9.34
10462,1.11,-1.14,-0.01,1.52,-1.96,9.34
10467,1.14,-1.16,-0.01,1.52,-1.96,9.34
10472,1.16,-1.17,-0.01,1.53,-1.96,9.34
10477,1.19,-1.18,-0.01,1.53,-1.95,9.35
10482,1.23,-1.21,-0.01,1.54,-1.95,9.35
10487,1.31,-1.26,-0.01,1.55,-1.95,9.37
10493,1.33,-1.27,-0.02,1.56,-1.95,9.38
10497,1.35,-1.29,-0.02,1.56,-1.94,9.39
10502,1.38,-1.30,-0.03,1.56,-1.94,9.40
10507,1.48,-1.37,-0.06,1.58,-1.93,9.47
10512,1.51,-1.40,-0.08,1.58,-1.93,9.49
10517,1.53,-1.42,-0.11,1.58,-1.92,9.52
10522,1.55,-1.43,-0.12,1.58,-1.92,9.52
10527,1.55,-1.43,-0.13,1.58,-1.92,9.52
10532,1.55,-1.44,-0.13,1.58,-1.92,9.52
10537,1.56,-1.44,-0.14,1.58,-1.92,9.52
10542,1.56,-1.44,-0.14,1.58,-1.92,9.52
10547,1.59,-1.46,-0.16,1.58,-1.91,9.52
10553,1.61,-1.48,-0.20,1.57,-1.91,9.51
10557,1.63,-1.50,-0.24,1.57,-1.90,9.50
10562,1.65,-1.51,-0.26,1.57,-1.90,9.49
10567,1.66,-1.52,-0.28,1.57,-1.90,9.49
10572,1.68,-1.53,-0.32,1.57,-1.89,9.47
10577,1.69,-1.55,-0.35,1.56,-1.89,9.45
10582,1.70,-1.55,-0.37,1.56,-1.89,9.44
10587,1.73,-1.56,-0.44,1.56,-1.88,9.41
10592,1.74,-1.55,-0.45,1.56,-1.88,9.40
10597,1.74,-1.54,-0.47,1.55,-1.88,9.39
10602,1.77,-1.47,-0.55,1.55,-1.88,9.38
10607,1.77,-1.44,-0.55,1.55,-1.88,9.37
10612,1.77,-1.44,-0.55,1.55,-1.88,9.37
10617,1.77,-1.44,-0.55,1.55,-1.88,9.37
10622,1.77,-1.43,-0.55,1.55,-1.88,9.37
10628,1.77,-1.43,-0.55,1.55,-1.88,9.37
10632,1.77,-1.43,-0.55,1.55,-1.88,9.37
10637,1.77,-1.43,-0.55,1.55,-1.88,9.37
10642,1.77,-1.43,-0.55,1.55,-1.88,9.37
10647,1.77,-1.42,-0.55,1.55,-1.88,9.37
10652,1.77,-1.41,-0.55,1.55,-1.88,9.37
10657,1.76,-1.40,-0.55,1.55,-1.88,9.37
10662,1.75,-1.39,-0.55,1.55,-1.88,9.37
10667,1.75,-1.38,-0.55,1.55,-1.88,9.37
10672,1.75,-1.37,-0.55,1.55,-1.88,9.37
10677,1.74,-1.37,-0.55,1.55,-1.88,9.37
10682,1.74,-1.36,-0.55,1.55,-1.88,9.37
10687,1.72,-1.33,-0.57,1.55,-1.88,9.38
10693,1.71,-1.32,-0.58,1.55,-1.88,9.38
10697,1.71,-1.32,-0.58,1.55,-1.87,9.38
10703,1.70,-1.31,-0.59,1.55,-1.87,9.38
10707,1.69,-1.29,-0.60,1.55,-1.87,9.38
10712,1.64,-1.23,-0.65,1.55,-1.87,9.39
10717,1.60,-1.17,-0.70,1.55,-1.87,9.39
10722,1.56,-1.13,-0.74,1.55,-1.87,9.40
10727,1.54,-1.11,-0.78,1.55,-1.87,9.40
10732,1.49,-1.07,-0.87,1.55,-1.87,9.41
10738,1.44,-1.04,-0.96,1.55,-1.87,9.42
10742,1.40,-1.00,-1.06,1.55,-1.87,9.42
10747,1.34,-0.95,-1.18,1.55,-1.87,9.43
10752,1.33,-0.93,-1.22,1.55,-1.87,9.44
10758,1.29,-0.88,-1.34,1.55,-1.87,9.44
10763,1.28,-0.87,-1.35,1.55,-1.87,9.45
10768,1.27,-0.85,-1.39,1.55,-1.87,9.45
10772,1.26,-0.83,-1.42,1.55,-1.87,9.45
10777,1.24,-0.81,-1.46,1.55,-1.87,9.45
10782,1.22,-0.78,-1.51,1.55,-1.88,9.46
10787,1.20,-0.70,-1.58,1.55,-1.88,9.46
10792,1.18,-0.64,-1.63,1.55,-1.89,9.46
10797,1.17,-0.61,-1.64,1.55,-1.89,9.46
10803,1.17,-0.59,-1.64,1.56,-1.89,9.46
10807,1.16,-0.55,-1.65,1.56,-1.89,9.46
10812,1.16,-0.53,-1.65,1.56,-1.89,9.46
10817,1.15,-0.47,-1.63,1.56,-1.89,9.46
10823,1.15,-0.46,-1.63,1.56,-1.89,9.46
10827,1.14,-0.44,-1.62,1.56,-1.89,9.45
10832,1.14,-0.42,-1.61,1.56,-1.89,9.45
10838,1.13,-0.32,-1.56,1.57,-1.89,9.44
10842,1.12,-0.30,-1.55,1.58,-1.89,9.44
10847,1.12,-0.27,-1.54,1.58,-1.89,9.44
10852,1.12,-0.24,-1.53,1.58,-1.89,9.43
10857,1.11,-0.09,-1.45,1.63,-1.89,9.43
10862,1.11,-0.08,-1.44,1.63,-1.89,9.43
10868,1.11,-0.04,-1.43,1.64,-1.89,9.44
10872,1.14,0.15,-1.33,1.71,-1.87,9.49
10877,1.15,0.17,-1.32,1.72,-1.86,9.49
10882,1.16,0.21,-1.29,1.73,-1.84,9.52
10887,1.16,0.21,-1.29,1.74,-1.84,9.53
10893,1.17,0.22,-1.28,1.74,-1.84,9.53
10897,1.17,0.22,-1.27,1.74,-1.83,9.53
10903,1.17,0.23,-1.27,1.73,-1.83,9.53
10907,1.17,0.23,-1.26,1.73,-1.82,9.53
10913,1.18,0.23,-1.25,1.72,-1.82,9.53
10917,1.18,0.23,-1.25,1.72,-1.82,9.53
10922,1.18,0.24,-1.25,1.71,-1.82,9.53
10927,1.19,0.24,-1.25,1.71,-1.82,9.53
10932,1.19,0.24,-1.25,1.70,-1.82,9.54
10937,1.20,0.25,-1.26,1.70,-1.82,9.54
10942,1.20,0.25,-1.26,1.70,-1.83,9.54
10947,1.21,0.25,-1.27,1.69,-1.83,9.54
10952,1.22,0.26,-1.28,1.69,-1.83,9.54
10957,1.22,0.26,-1.28,1.68,-1.83,9.54
10962,1.23,0.27,-1.29,1.67,-1.83,9.54
10967,1.25,0.27,-1.31,1.66,-1.83,9.55
10972,1.26,0.28,-1.34,1.64,-1.83,9.55
10978,1.26,0.29,-1.36,1.63,-1.83,9.55
10983,1.28,0.30,-1.39,1.61,-1.83,9.56
10988,1.29,0.31,-1.41,1.59,-1.83,9.57
10992,1.30,0.33,-1.44,1.57,-1.83,9.57
10997,1.30,0.34,-1.45,1.55,-1.83,9.58
11002,1.30,0.35,-1.46,1.55,-1.83,9.58
11008,1.30,0.36,-1.46,1.54,-1.83,9.58
11012,1.29,0.38,-1.47,1.53,-1.83,9.58
11017,1.28,0.39,-1.47,1.52,-1.83,9.58
11023,1.26,0.41,-1.48,1.51,-1.83,9.58
11028,1.16,0.51,-1.51,1.48,-1.83,9.59
11032,1.15,0.53,-1.51,1.47,-1.83,9.59
11038,1.13,0.54,-1.52,1.47,-1.83,9.59
11042,1.01,0.68,-1.55,1.45,-1.83,9.60
11047,0.73,0.96,-1.58,1.43,-1.85,9.64
11052,0.41,1.24,-1.61,1.43,-1.88,9.67
11057,0.08,1.49,-1.65,1.46,-1.92,9.72
11062,-0.16,1.65,-1.67,1.48,-1.95,9.74
11067,-0.28,1.71,-1.68,1.49,-1.96,9.75
11072,-0.45,1.77,-1.68,1.51,-1.99,9.76
11077,-0.52,1.80,-1.68,1.52,-2.00,9.76
11082,-0.60,1.82,-1.68,1.53,-2.02,9.76
11087,-0.66,1.84,-1.68,1.54,-2.03,9.76
11092,-0.75,1.86,-1.67,1.55,-2.04,9.76
11097,-0.88,1.88,-1.65,1.57,-2.07,9.76
11103,-0.96,1.88,-1.63,1.59,-2.09,9.75
11107,-1.09,1.89,-1.58,1.61,-2.11,9.74
11112,-1.14,1.89,-1.55,1.62,-2.12,9.73
11117,-1.24,1.88,-1.46,1.65,-2.15,9.71
11122,-1.30,1.86,-1.39,1.68,-2.16,9.69
11127,-1.35,1.81,-1.28,1.74,-2.17,9.67
11132,-1.38,1.75,-1.14,1.81,-2.17,9.64
11137,-1.38,1.67,-1.05,1.88,-2.17,9.61
11142,-1.35,1.60,-1.00,1.94,-2.15,9.59
11147,-1.33,1.56,-0.97,1.98,-2.13,9.57
11152,-1.31,1.52,-0.94,2.00,-2.11,9.56
11157,-1.29,1.49,-0.92,2.02,-2.10,9.55
11162,-1.28,1.47,-0.91,2.03,-2.10,9.54
11167,-1.28,1.46,-0.90,2.04,-2.09,9.54
11172,-1.27,1.44,-0.88,2.05,-2.08,9.54
11177,-1.26,1.41,-0.86,2.06,-2.07,9.53
11183,-1.20,1.32,-0.74,2.11,-2.01,9.49
11188,-1.19,1.30,-0.71,2.13,-2.00,9.49
11192,-1.18,1.28,-0.69,2.14,-1.99,9.48
11197,-1.17,1.26,-0.65,2.15,-1.97,9.47
11203,-1.14,1.21,-0.59,2.17,-1.95,9.46
11207,-1.11,1.12,-0.41,2.20,-1.91,9.44
11212,-1.06,0.93,0.10,2.23,-1.82,9.42
11217,-1.08,0.88,0.26,2.23,-1.81,9.41
11223,-1.11,0.83,0.38,2.23,-1.80,9.41
11228,-1.13,0.81,0.44,2.23,-1.80,9.40
11232,-1.17,0.78,0.51,2.23,-1.79,9.40
11238,-1.20,0.76,0.55,2.23,-1.79,9.40
11242,-1.23,0.75,0.59,2.23,-1.79,9.39
11247,-1.25,0.74,0.60,2.23,-1.79,9.39
11252,-1.29,0.72,0.63,2.23,-1.79,9.39
11257,-1.36,0.71,0.67,2.23,-1.79,9.38
11262,-1.43,0.70,0.71,2.23,-1.79,9.38
11267,-1.52,0.68,0.74,2.22,-1.80,9.37
11272,-1.61,0.67,0.76,2.22,-1.80,9.37
11277,-1.69,0.66,0.78,2.22,-1.80,9.36
11282,-1.74,0.66,0.79,2.22,-1.81,9.36
11287,-1.82,0.64,0.81,2.21,-1.81,9.35
11293,-1.96,0.62,0.83,2.21,-1.82,9.35
11297,-2.31,0.59,0.85,2.19,-1.83,9.32
11302,-3.15,0.50,0.88,2.16,-1.86,9.27
11307,-3.26,0.48,0.88,2.15,-1.86,9.27
11312,-3.34,0.47,0.88,2.15,-1.86,9.26
11318,-3.40,0.46,0.88,2.15,-1.86,9.26
11322,-3.55,0.42,0.89,2.14,-1.87,9.25
11327,-3.64,0.40,0.89,2.13,-1.87,9.24
11332,-3.70,0.38,0.89,2.13,-1.87,9.24
11338,-3.74,0.36,0.90,2.12,-1.87,9.23
11342,-3.86,0.31,0.91,2.11,-1.87,9.22
11347,-3.89,0.30,0.92,2.11,-1.87,9.22
11353,-3.90,0.29,0.92,2.11,-1.87,9.22
11358,-3.92,0.29,0.93,2.11,-1.87,9.22
11362,-3.93,0.28,0.94,2.10,-1.87,9.21
11368,-3.91,0.29,0.97,2.08,-1.86,9.21
11372,-3.88,0.32,1.01,2.07,-1.86,9.21
11377,-3.87,0.33,1.04,2.06,-1.86,9.21
11382,-3.86,0.34,1.06,2.05,-1.85,9.21
11387,-3.85,0.36,1.08,2.05,-1.85,9.21
11392,-3.83,0.38,1.12,2.04,-1.85,9.21
11397,-3.79,0.44,1.21,2.02,-1.84,9.21
11403,-3.75,0.49,1.29,2.00,-1.83,9.20
11407,-3.72,0.53,1.36,1.99,-1.83,9.20
11412,-3.66,0.62,1.54,1.97,-1.82,9.20
11417,-3.53,0.86,2.16,1.98,-1.81,9.16
11422,-3.47,0.89,2.34,2.00,-1.81,9.15
11428,-3.41,0.92,2.50,2.02,-1.81,9.14
11432,-3.24,0.98,2.81,2.05,-1.81,9.15
11438,-3.10,1.01,2.97,2.06,-1.81,9.17
11442,-2.41,1.23,3.75,2.05,-1.84,9.28
11447,-2.25,1.29,3.97,2.05,-1.84,9.30
11453,-2.01,1.40,4.34,2.04,-1.85,9.33
11457,-1.89,1.47,4.58,2.03,-1.85,9.34
11462,-1.80,1.53,4.87,2.02,-1.85,9.35
11467,-1.72,1.57,5.16,2.02,-1.85,9.35
11472,-1.64,1.63,5.48,2.01,-1.85,9.35
11477,-1.49,1.85,6.41,1.98,-1.85,9.37
11482,-1.46,1.94,6.65,1.98,-1.85,9.36
11487,-1.41,2.26,7.13,1.95,-1.85,9.35
11492,-1.40,2.32,7.19,1.94,-1.85,9.34
11497,-1.39,2.39,7.25,1.94,-1.84,9.34
11502,-1.40,2.66,7.31,1.92,-1.84,9.33
11507,-1.47,3.21,7.22,1.89,-1.83,9.35
11512,-1.55,3.45,7.11,1.87,-1.82,9.36
11517,-1.78,3.85,6.84,1.85,-1.82,9.40
11522,-1.90,4.02,6.72,1.84,-1.82,9.41
11527,-2.14,4.26,6.54,1.84,-1.82,9.43
11532,-2.45,4.48,6.36,1.84,-1.82,9.45
11537,-2.94,4.81,6.17,1.84,-1.82,9.46
11542,-3.58,5.18,6.05,1.84,-1.84,9.46
11547,-4.30,5.58,6.02,1.81,-1.88,9.46
11552,-4.55,5.73,6.02,1.80,-1.89,9.46
11557,-4.92,5.97,6.06,1.78,-1.91,9.46
11562,-5.14,6.12,6.08,1.78,-1.92,9.46
11568,-5.81,6.59,6.17,1.78,-1.95,9.46
11572,-6.03,6.74,6.19,1.79,-1.95,9.46
11577,-6.32,6.92,6.22,1.79,-1.95,9.46
11582,-6.51,7.05,6.24,1.79,-1.95,9.46
11587,-8.74,8.03,6.29,1.80,-1.99,9.46
11592,-9.10,8.18,6.29,1.79,-2.00,9.46
11597,-11.55,9.18,6.41,1.78,-2.03,9.55
11602,-11.92,9.35,6.47,1.77,-2.02,9.55
11607,-12.24,9.48,6.52,1.77,-2.02,9.55
11612,-13.82,10.11,6.98,1.74,-1.96,9.52
11617,-14.64,10.37,7.24,1.69,-1.93,9.51
11622,-14.81,10.42,7.29,1.68,-1.92,9.51
11628,-15.30,10.51,7.42,1.64,-1.91,9.52
11632,-16.07,10.63,7.59,1.55,-1.90,9.56
11638,-16.35,10.68,7.66,1.52,-1.90,9.59
11642,-16.68,10.74,7.75,1.50,-1.90,9.61
11647,-16.96,10.81,7.97,1.50,-1.90,9.61
11652,-17.11,10.86,8.18,1.50,-1.90,9.61
11657,-19.15,11.37,10.93,1.54,-1.84,9.58
11662,-20.55,11.94,12.76,1.59,-1.76,9.56
11667,-22.07,12.95,14.77,1.67,-1.64,9.54
11672,-22.61,13.65,15.65,1.72,-1.59,9.52
11677,-24.69,17.72,18.30,1.99,-1.42,9.40
11682,-25.53,18.92,18.84,2.06,-1.38,9.38
11688,-27.65,20.51,19.59,2.14,-1.35,9.37
11692,-31.02,23.03,21.41,2.24,-1.32,9.38
11697,-31.69,23.52,21.97,2.26,-1.32,9.38
11703,-32.04,23.77,22.28,2.27,-1.33,9.39
11707,-32.71,24.26,22.91,2.29,-1.34,9.39
11712,-35.44,27.00,26.39,2.35,-1.44,9.42
11717,-36.97,29.11,29.89,2.37,-1.54,9.43
11722,-40.08,33.03,37.54,2.37,-1.72,9.44
11727,-43.24,37.70,45.43,2.32,-1.91,9.44
11732,-43.90,38.68,46.93,2.30,-1.95,9.44
11738,-44.72,39.68,48.78,2.26,-1.98,9.44
11742,-45.99,42.65,51.94,2.19,-2.06,9.44
11747,-46.96,47.68,54.39,2.11,-2.19,9.44
11753,-47.71,62.82,59.02,1.98,-2.16,9.55
11757,-47.71,65.92,59.83,1.96,-2.08,9.59
11762,-47.69,67.86,60.36,1.95,-2.01,9.63
11767,-47.44,78.87,63.15,1.92,-1.07,10.12
11772,-47.28,89.07,66.66,1.83,-0.28,10.92
11777,-49.85,99.18,76.53,1.45,-0.04,11.57
11782,-54.58,100.58,80.37,1.31,-0.23,11.53
11788,-65.82,102.03,90.22,1.05,-0.70,11.26
11792,-80.26,102.94,102.90,0.82,-1.26,10.91
11797,-132.48,106.05,152.94,0.23,-3.79,9.60
11803,-136.22,106.41,157.05,0.26,-4.01,9.56
11807,-141.97,106.87,164.67,0.73,-4.48,9.72
11812,-133.58,97.94,162.46,2.66,-4.71,10.93
11817,-87.52,63.91,136.90,5.39,-3.77,12.58
11822,-72.97,53.94,129.04,5.98,-3.40,12.91
11828,-41.18,34.94,113.09,6.87,-2.39,13.40
11832,13.04,2.18,90.90,7.32,-0.34,13.66
11837,35.83,-14.50,84.68,7.12,0.73,13.54
11842,40.75,-21.21,84.39,6.96,0.94,13.42
11847,43.69,-25.99,84.50,6.82,1.04,13.29
11853,48.91,-39.43,86.19,6.36,1.04,12.77
11857,49.51,-52.43,89.43,5.92,0.65,12.15
11862,49.46,-58.18,91.21,5.72,0.34,11.81
11867,49.37,-63.88,93.10,5.53,-0.04,11.46
11872,49.14,-71.43,95.81,5.26,-0.63,10.98
11877,48.69,-78.13,98.49,5.03,-1.26,10.54
11882,47.33,-90.84,104.54,4.59,-2.83,9.65
11887,47.26,-101.21,109.54,4.26,-4.37,9.06
11893,47.76,-107.74,112.56,4.06,-5.49,8.73
11897,48.56,-112.47,114.40,3.90,-6.48,8.44
11903,49.81,-116.68,115.27,3.72,-7.52,8.10
11907,50.22,-118.50,115.09,3.60,-8.03,7.79
11912,50.42,-120.52,113.48,3.45,-8.62,7.28
11917,49.76,-122.28,108.81,3.29,-9.03,6.73
11922,47.20,-123.90,97.80,3.12,-9.31,6.17
11927,45.66,-124.57,91.17,3.05,-9.36,5.99
11932,43.48,-125.24,82.30,2.98,-9.41,5.84
11937,40.80,-125.60,71.90,2.90,-9.46,5.77
11942,25.54,-124.45,20.66,2.58,-9.53,5.87
11947,19.30,-122.42,5.51,2.47,-9.53,6.06
11954,17.89,-121.87,2.48,2.44,-9.53,6.11
11958,14.77,-120.60,-4.14,2.38,-9.53,6.19
11962,8.94,-118.07,-16.40,2.24,-9.40,6.28
11967,4.25,-115.91,-27.36,2.10,-9.20,6.33
11972,1.52,-114.61,-34.01,2.00,-9.03,6.35
11977,0.62,-114.18,-36.13,1.97,-8.97,6.36
11982,-2.70,-112.59,-43.76,1.82,-8.73,6.43
11988,-6.89,-110.51,-52.71,1.62,-8.36,6.64
11992,-8.49,-109.63,-55.36,1.55,-8.23,6.73
11997,-12.96,-106.63,-60.32,1.36,-7.89,7.15
12002,-15.38,-104.74,-63.63,1.28,-7.73,7.37
12007,-21.90,-97.90,-73.64,1.12,-7.36,7.90
12012,-23.48,-95.99,-77.48,1.08,-7.27,8.02
12017,-29.80,-89.08,-95.04,0.86,-6.74,8.51
12022,-32.02,-87.10,-101.52,0.76,-6.49,8.70
12028,-33.33,-86.15,-105.03,0.69,-6.33,8.81
12033,-37.10,-84.05,-113.87,0.50,-5.83,9.16
12038,-38.71,-83.30,-117.40,0.42,-5.60,9.32
12042,-41.68,-82.10,-123.50,0.27,-5.16,9.65
12047,-44.10,-81.13,-128.45,0.15,-4.71,10.03
12053,-44.44,-80.83,-129.62,0.13,-4.56,10.18
12058,-44.28,-80.78,-129.69,0.13,-4.53,10.21
12062,-43.83,-80.75,-129.54,0.13,-4.51,10.24
12067,-43.18,-80.74,-129.23,0.14,-4.50,10.25
12072,-42.50,-80.71,-128.82,0.15,-4.50,10.26
12077,-41.19,-80.63,-127.98,0.18,-4.52,10.24
12082,-38.36,-80.53,-126.12,0.23,-4.58,10.22
12087,-34.84,-80.40,-123.38,0.28,-4.66,10.17
12093,-29.22,-80.21,-118.11,0.33,-4.83,10.06
12097,-25.89,-80.21,-114.11,0.34,-4.92,9.99
12103,-23.42,-80.28,-110.65,0.35,-5.00,9.92
12107,-21.43,-80.42,-107.44,0.35,-5.09,9.82
12113,-19.00,-80.79,-103.02,0.32,-5.26,9.58
12117,-18.54,-80.93,-101.90,0.31,-5.35,9.47
12122,-17.42,-81.47,-99.00,0.22,-5.90,8.90
12127,-17.41,-81.50,-98.89,0.22,-5.94,8.87
12132,-17.50,-81.54,-98.78,0.21,-6.00,8.82
12137,-18.92,-81.65,-98.98,0.17,-6.28,8.59
12142,-22.62,-81.72,-99.65,0.10,-6.74,8.22
12147,-23.62,-81.67,-99.87,0.08,-6.80,8.16
12153,-27.82,-80.83,-101.10,0.05,-6.90,8.00
12158,-28.43,-80.54,-101.38,0.04,-6.89,7.99
12162,-29.01,-80.22,-101.67,0.04,-6.87,7.98
12167,-31.88,-78.56,-103.19,0.02,-6.73,7.97
12172,-33.07,-77.65,-103.94,0.02,-6.64,7.98
12177,-35.10,-75.92,-105.21,0.01,-6.44,7.98
12183,-38.92,-72.17,-107.47,0.01,-5.91,7.97
12187,-40.24,-70.63,-108.13,0.00,-5.69,7.98
12192,-41.72,-68.68,-108.76,-0.00,-5.42,8.00
12197,-43.79,-65.15,-109.38,-0.03,-4.87,8.14
12203,-44.32,-63.96,-109.39,-0.05,-4.66,8.23
12207,-44.83,-62.41,-109.18,-0.09,-4.31,8.37
12212,-45.15,-60.71,-108.08,-0.13,-3.65,8.60
12217,-45.27,-59.98,-107.21,-0.16,-3.29,8.72
12222,-45.35,-59.53,-106.33,-0.18,-3.03,8.81
12227,-45.07,-59.10,-103.42,-0.21,-2.58,8.95
12232,-44.69,-58.82,-101.33,-0.22,-2.36,9.02
12237,-44.29,-58.51,-99.25,-0.24,-2.18,9.09
12242,-41.02,-57.47,-85.55,-0.33,-1.79,9.30
12247,-40.04,-57.17,-82.31,-0.35,-1.76,9.33
12253,-38.81,-56.83,-78.48,-0.37,-1.75,9.34
12258,-34.49,-55.47,-66.02,-0.43,-1.56,9.29
12262,-33.03,-54.95,-62.20,-0.45,-1.49,9.26
12267,-29.54,-53.52,-52.90,-0.53,-1.28,9.15
12272,-25.21,-51.36,-41.16,-0.67,-0.94,8.91
12277,-23.36,-50.17,-35.63,-0.74,-0.77,8.77
12283,-21.67,-48.92,-30.30,-0.82,-0.61,8.63
12288,-19.36,-46.87,-22.97,-0.91,-0.51,8.50
12292,-18.05,-45.51,-18.85,-0.95,-0.53,8.48
12297,-15.47,-43.37,-13.14,-0.97,-0.77,8.58
12302,-13.63,-42.17,-10.12,-0.98,-1.03,8.71
12307,-8.91,-40.15,-3.76,-1.00,-1.74,8.98
12312,-5.63,-39.47,1.80,-1.05,-2.36,9.02
12317,-3.87,-39.40,6.96,-1.13,-2.80,8.88
12322,-3.42,-39.47,9.29,-1.17,-2.95,8.70
12327,-3.19,-39.55,11.26,-1.21,-3.05,8.52
12332,-2.91,-39.90,18.22,-1.35,-3.27,7.72
12338,-2.98,-39.89,21.80,-1.43,-3.33,7.25
12342,-3.12,-39.34,23.59,-1.47,-3.34,7.00
12347,-3.53,-35.93,26.80,-1.50,-3.43,6.62
12353,-3.83,-32.11,28.19,-1.50,-3.51,6.49
12358,-3.99,-29.56,28.69,-1.49,-3.57,6.44
12363,-4.32,-23.92,29.31,-1.44,-3.73,6.37
12367,-4.56,-20.37,29.54,-1.40,-3.82,6.36
12373,-4.81,-16.80,29.60,-1.34,-3.91,6.35
12377,-5.27,-9.70,29.00,-1.20,-4.04,6.35
12382,-5.92,1.18,23.50,-0.92,-4.17,6.37
12388,-6.08,4.27,20.39,-0.85,-4.20,6.38
12392,-6.31,8.21,15.84,-0.76,-4.22,6.40
12397,-7.02,15.28,8.00,-0.65,-4.24,6.46
12403,-8.29,24.12,1.76,-0.52,-4.26,6.59
12407,-8.57,25.73,1.59,-0.49,-4.26,6.62
12412,-9.12,28.98,2.02,-0.44,-4.26,6.68
12417,-9.57,31.98,3.44,-0.38,-4.25,6.73
12422,-9.99,35.04,6.67,-0.31,-4.25,6.80
12428,-10.73,41.28,14.99,-0.14,-4.25,6.92
12432,-11.27,47.17,23.03,0.03,-4.24,7.01
12437,-11.56,50.51,26.43,0.14,-4.22,7.07
12442,-11.82,53.29,28.47,0.26,-4.20,7.10
12447,-11.95,54.70,29.06,0.35,-4.10,6.91
12453,-12.05,55.88,29.37,0.44,-3.92,6.52
12457,-11.98,57.45,28.99,0.60,-3.43,5.40
12462,-11.66,58.45,28.03,0.76,-2.91,4.14
12467,-11.02,59.51,26.08,1.11,-2.46,2.93
12472,-10.09,60.32,22.93,1.95,-2.19,2.06
12477,-8.84,60.58,17.89,3.60,-2.30,1.94
12482,-7.69,59.75,12.63,5.68,-2.87,2.71
12487,-6.10,56.58,3.94,8.93,-3.59,4.60
12492,-5.24,54.04,-1.79,10.60,-3.82,5.79
12497,-4.74,52.63,-7.44,11.55,-3.57,6.45
12503,-4.46,51.76,-12.85,12.05,-2.98,6.89
12507,-2.83,51.61,-21.86,12.11,-2.01,7.20
12512,0.24,52.57,-29.22,11.88,-1.22,7.35
12517,6.55,55.24,-37.86,11.18,-0.44,7.56
12522,14.88,61.28,-43.37,10.04,0.05,7.75
12527,26.26,72.62,-45.07,8.35,0.55,7.99
12532,41.81,95.39,-39.53,5.83,1.01,8.33
12537,51.13,113.85,-25.15,4.19,1.28,8.55
12542,54.18,120.93,-15.86,3.62,1.34,8.63
12547,56.91,127.95,-2.17,3.05,1.35,8.79
12552,60.14,134.39,25.87,2.41,1.03,9.14
12557,61.56,133.03,34.94,2.37,0.60,9.30
12563,62.73,129.93,41.03,2.36,-0.12,9.43
12567,65.42,123.22,44.89,2.40,-1.69,9.52
12572,70.18,116.62,42.99,2.48,-3.43,9.33
12577,76.56,111.14,37.04,2.60,-5.03,8.97
12582,98.03,103.07,6.24,3.25,-7.93,7.30
12587,109.42,102.00,-6.67,3.67,-8.35,6.66
12592,125.49,102.54,-22.29,4.28,-8.03,5.93
12597,150.70,106.08,-37.88,5.12,-6.23,5.32
12603,167.36,109.32,-45.23,5.62,-4.55,5.02
12607,175.85,111.51,-47.83,5.84,-3.41,4.92
12612,185.34,114.66,-48.30,6.02,-1.30,4.98
12617,186.99,114.94,-46.86,6.01,-0.23,5.16
12622,186.77,113.69,-44.75,5.94,0.60,5.49
12627,169.04,96.12,-31.07,5.05,2.36,7.81
12632,152.22,84.01,-22.68,4.49,2.59,8.99
12637,142.98,78.17,-18.74,4.22,2.60,9.50
12642,111.49,63.20,-6.50,3.55,2.35,10.48
12647,82.09,54.81,4.41,3.19,1.98,10.75
12652,52.97,48.54,14.73,2.93,1.58,10.87
12658,10.56,41.86,29.18,2.67,0.91,10.71
12662,-23.01,38.30,39.85,2.55,0.23,10.37
12668,-25.77,38.03,40.03,2.54,0.10,10.29
12672,-23.30,37.58,36.71,2.54,-0.08,10.13
12677,-14.08,37.05,31.60,2.57,-0.21,10.01
12682,-3.66,36.54,26.17,2.59,-0.31,9.91
12687,10.60,34.82,18.89,2.64,-0.58,9.72
12692,19.86,31.96,13.30,2.68,-0.99,9.53
12697,21.26,30.70,11.62,2.69,-1.17,9.47
12703,21.39,28.33,9.30,2.68,-1.49,9.38
12707,19.56,26.94,8.21,2.67,-1.66,9.35
12712,16.86,25.78,7.32,2.65,-1.81,9.33
12717,11.90,24.14,6.22,2.59,-2.01,9.33
12722,4.89,22.33,5.17,2.46,-2.19,9.34
12727,3.03,21.76,4.75,2.41,-2.22,9.35
12732,-0.09,20.13,3.64,2.26,-2.23,9.37
12737,-0.49,19.73,3.41,2.23,-2.23,9.38
12742,-0.96,19.13,3.09,2.20,-2.21,9.38
12747,-1.61,17.29,2.31,2.13,-2.16,9.38
12752,-1.82,15.37,1.69,2.09,-2.11,9.38
12758,-1.78,14.77,1.53,2.08,-2.09,9.38
12763,-1.64,13.74,1.37,2.07,-2.08,9.37
12767,-1.53,13.04,1.37,2.06,-2.09,9.36
12772,-1.38,12.32,1.42,2.05,-2.11,9.34
12777,-1.12,11.55,1.57,2.04,-2.14,9.31
12782,-0.48,10.74,1.93,2.02,-2.21,9.28
12788,-0.14,10.54,2.03,2.02,-2.23,9.27
12792,0.49,10.25,2.15,2.02,-2.24,9.26
12797,1.28,9.85,2.23,2.01,-2.24,9.26
12803,2.09,9.48,2.29,2.00,-2.22,9.26
12807,2.92,9.04,2.32,2.00,-2.18,9.30
12812,3.55,8.63,2.35,2.00,-2.12,9.35
12818,3.71,8.52,2.36,2.00,-2.10,9.37
12822,3.87,8.41,2.37,2.00,-2.08,9.40
12828,3.96,8.15,2.40,1.99,-2.03,9.45
12832,3.89,7.81,2.43,1.97,-1.96,9.50
12838,3.81,7.76,2.42,1.96,-1.95,9.49
12843,3.59,7.67,2.37,1.94,-1.93,9.48
12848,3.51,7.63,2.33,1.93,-1.93,9.47
12853,3.45,7.60,2.29,1.93,-1.93,9.46
12857,3.31,7.52,2.16,1.91,-1.93,9.44
12862,3.09,7.32,1.93,1.89,-1.93,9.42
12867,2.79,6.90,1.57,1.85,-1.94,9.39
12872,2.64,6.63,1.36,1.84,-1.95,9.38
12877,2.31,5.79,1.00,1.80,-1.97,9.35
12882,2.28,5.67,0.97,1.79,-1.98,9.35
12887,2.20,5.38,0.91,1.78,-1.99,9.34
12892,2.10,4.44,0.78,1.78,-2.01,9.27
12897,2.11,4.18,0.76,1.79,-2.01,9.26
12903,2.13,3.96,0.74,1.78,-2.01,9.26
12907,2.15,3.72,0.73,1.78,-2.00,9.26
12912,2.20,3.43,0.71,1.77,-1.99,9.26
12918,2.24,3.22,0.70,1.76,-1.99,9.27
12922,2.37,2.73,0.68,1.71,-1.97,9.32
12927,2.44,2.53,0.69,1.68,-1.96,9.36
12932,2.62,2.23,0.80,1.64,-1.95,9.42
12938,2.68,2.18,0.89,1.63,-1.95,9.44
12942,2.73,2.15,0.99,1.63,-1.95,9.46
12947,2.78,2.13,1.16,1.63,-1.95,9.48
12952,2.80,2.09,1.27,1.63,-1.95,9.50
12957,2.78,2.01,1.48,1.65,-1.96,9.55
12963,2.65,1.83,1.68,1.71,-1.97,9.60
12967,2.60,1.80,1.71,1.73,-1.97,9.60
12972,2.56,1.76,1.72,1.74,-1.98,9.60
12977,2.49,1.72,1.72,1.77,-1.97,9.58
12982,2.42,1.69,1.70,1.77,-1.97,9.56
12987,2.35,1.67,1.66,1.77,-1.96,9.53
12992,2.08,1.51,1.55,1.68,-1.93,9.49
12998,1.90,1.33,1.47,1.62,-1.92,9.47
13003,1.83,1.25,1.44,1.61,-1.91,9.47
13007,1.62,1.00,1.34,1.58,-1.90,9.49
13012,1.35,0.75,1.18,1.56,-1.88,9.51
13017,0.98,0.45,0.93,1.56,-1.86,9.55
13022,0.54,0.18,0.59,1.57,-1.86,9.61
13028,0.31,-0.01,0.36,1.58,-1.86,9.64
13032,0.26,-0.07,0.29,1.59,-1.87,9.64
13038,0.20,-0.34,0.16,1.64,-1.89,9.63
13042,0.22,-0.52,0.13,1.66,-1.90,9.61
13047,0.25,-0.66,0.13,1.69,-1.91,9.58
13052,0.38,-0.95,0.13,1.73,-1.92,9.53
13057,0.48,-1.12,0.14,1.76,-1.93,9.49
13062,0.52,-1.17,0.15,1.77,-1.93,9.48
13067,0.60,-1.26,0.17,1.78,-1.94,9.46
13072,0.70,-1.35,0.20,1.79,-1.95,9.45
13077,0.79,-1.43,0.25,1.79,-1.95,9.44
13082,0.83,-1.47,0.28,1.79,-1.95,9.45
13088,0.87,-1.51,0.32,1.79,-1.94,9.45
13092,0.91,-1.59,0.40,1.79,-1.94,9.46
13097,0.91,-1.62,0.44,1.78,-1.93,9.47
13103,0.89,-1.66,0.49,1.78,-1.92,9.50
13107,0.75,-1.70,0.53,1.77,-1.89,9.57
13112,0.68,-1.70,0.52,1.76,-1.88,9.58
13117,0.61,-1.70,0.50,1.76,-1.88,9.59
13122,0.48,-1.66,0.45,1.76,-1.87,9.60
13127,0.33,-1.59,0.39,1.76,-1.86,9.60
13132,0.17,-1.49,0.31,1.76,-1.86,9.60
13137,-0.28,-1.18,0.01,1.77,-1.86,9.57
13142,-0.42,-1.09,-0.10,1.77,-1.86,9.55
13147,-0.51,-1.04,-0.18,1.78,-1.86,9.53
13152,-0.66,-0.94,-0.31,1.79,-1.87,9.49
13157,-0.73,-0.88,-0.36,1.80,-1.87,9.46
13163,-0.81,-0.79,-0.42,1.81,-1.88,9.41
13167,-0.85,-0.65,-0.46,1.82,-1.90,9.38
13172,-0.85,-0.64,-0.47,1.82,-1.91,9.38
13177,-0.85,-0.63,-0.48,1.82,-1.91,9.38
13182,-0.84,-0.62,-0.49,1.82,-1.92,9.39
13188,-0.83,-0.62,-0.51,1.80,-1.92,9.40
13192,-0.80,-0.64,-0.54,1.79,-1.94,9.41
13197,-0.79,-0.66,-0.54,1.78,-1.94,9.41
13202,-0.76,-0.68,-0.54,1.77,-1.95,9.42
13207,-0.75,-0.69,-0.53,1.76,-1.95,9.42
13212,-0.74,-0.70,-0.51,1.76,-1.95,9.42
13217,-0.70,-0.72,-0.46,1.76,-1.96,9.42
13222,-0.64,-0.75,-0.34,1.75,-1.96,9.41
13228,-0.62,-0.76,-0.30,1.75,-1.96,9.41
13232,-0.52,-0.80,-0.04,1.74,-1.98,9.38
13237,-0.50,-0.80,0.03,1.72,-1.99,9.38
13242,-0.49,-0.77,0.07,1.72,-1.99,9.38
13248,-0.47,-0.68,0.12,1.71,-1.99,9.38
13253,-0.44,-0.59,0.15,1.72,-1.99,9.39
13257,-0.37,-0.43,0.18,1.73,-1.99,9.42
13262,-0.32,-0.35,0.19,1.73,-1.99,9.45
13267,-0.28,-0.30,0.20,1.74,-1.99,9.48
13272,-0.26,-0.28,0.20,1.74,-1.99,9.50
13277,-0.24,-0.26,0.20,1.74,-1.99,9.54
13282,-0.23,-0.27,0.20,1.73,-1.98,9.56
13287,-0.22,-0.28,0.19,1.73,-1.98,9.57
13292,-0.20,-0.37,0.19,1.70,-1.96,9.59
13297,-0.20,-0.44,0.19,1.69,-1.96,9.59
13303,-0.20,-0.53,0.19,1.67,-1.95,9.59
13307,-0.21,-0.62,0.19,1.65,-1.95,9.59
13312,-0.23,-0.76,0.19,1.63,-1.94,9.58
13318,-0.25,-0.81,0.20,1.62,-1.94,9.57
13323,-0.31,-1.01,0.19,1.57,-1.94,9.52
13327,-0.32,-1.02,0.18,1.57,-1.94,9.52
13332,-0.32,-1.02,0.18,1.57,-1.94,9.52
13337,-0.32,-1.02,0.17,1.56,-1.94,9.52
13342,-0.32,-1.01,0.14,1.54,-1.95,9.53
13347,-0.32,-1.00,0.12,1.53,-1.95,9.53
13353,-0.32,-0.99,0.09,1.53,-1.95,9.53
13358,-0.31,-0.99,0.05,1.53,-1.95,9.52
13363,-0.30,-1.00,0.03,1.53,-1.95,9.52
13367,-0.29,-1.02,0.01,1.53,-1.95,9.52
13372,-0.24,-1.07,-0.04,1.53,-1.95,9.52
13377,-0.23,-1.08,-0.05,1.53,-1.95,9.52
13383,-0.21,-1.08,-0.06,1.53,-1.95,9.52
13388,-0.19,-1.09,-0.09,1.54,-1.95,9.53
13392,-0.18,-1.09,-0.13,1.55,-1.94,9.53
13397,-0.17,-1.09,-0.15,1.55,-1.94,9.53
13402,-0.17,-1.09,-0.17,1.56,-1.94,9.53
13407,-0.17,-1.09,-0.18,1.56,-1.93,9.53
13412,-0.17,-1.10,-0.20,1.56,-1.93,9.53
13417,-0.15,-1.11,-0.26,1.55,-1.93,9.53
13422,-0.14,-1.11,-0.31,1.53,-1.92,9.52
13427,-0.13,-1.12,-0.38,1.51,-1.92,9.49
13432,-0.13,-1.13,-0.41,1.49,-1.92,9.47
13437,-0.12,-1.15,-0.43,1.48,-1.92,9.43
13442,-0.11,-1.24,-0.45,1.47,-1.92,9.37
13448,-0.08,-1.33,-0.45,1.47,-1.93,9.34
13452,-0.06,-1.39,-0.45,1.47,-1.94,9.33
13457,-0.03,-1.45,-0.45,1.47,-1.95,9.33
13462,0.08,-1.61,-0.45,1.47,-1.96,9.33
13468,0.13,-1.65,-0.46,1.47,-1.95,9.34
13472,0.18,-1.68,-0.49,1.48,-1.94,9.36
13477,0.25,-1.70,-0.54,1.50,-1.92,9.38
13482,0.27,-1.70,-0.56,1.50,-1.91,9.38
13487,0.29,-1.69,-0.58,1.50,-1.91,9.39
13492,0.33,-1.68,-0.61,1.50,-1.91,9.41
13498,0.36,-1.67,-0.64,1.51,-1.90,9.43
13502,0.39,-1.67,-0.66,1.51,-1.90,9.44
13507,0.43,-1.65,-0.72,1.52,-1.91,9.45
13512,0.51,-1.62,-0.92,1.54,-1.91,9.47
13517,0.55,-1.58,-1.08,1.54,-1.91,9.49
13523,0.59,-1.50,-1.29,1.56,-1.92,9.52
13527,0.60,-1.47,-1.38,1.56,-1.92,9.53
13532,0.62,-1.40,-1.51,1.58,-1.93,9.54
13537,0.64,-1.30,-1.62,1.60,-1.93,9.53
13542,0.67,-1.16,-1.66,1.64,-1.94,9.49
13547,0.68,-1.12,-1.65,1.64,-1.94,9.48
13552,0.72,-1.06,-1.63,1.66,-1.94,9.46
13557,0.80,-0.96,-1.58,1.67,-1.94,9.44
13563,0.89,-0.86,-1.53,1.67,-1.94,9.42
13567,1.02,-0.74,-1.48,1.67,-1.94,9.41
13572,1.20,-0.53,-1.40,1.67,-1.93,9.41
13577,1.24,-0.48,-1.39,1.67,-1.93,9.41
13582,1.29,-0.41,-1.37,1.66,-1.93,9.41
13588,1.32,-0.34,-1.35,1.65,-1.92,9.42
13592,1.34,-0.30,-1.34,1.63,-1.92,9.42
13597,1.34,-0.26,-1.33,1.62,-1.92,9.42
13602,1.30,0.04,-1.26,1.56,-1.92,9.42
13607,1.27,0.11,-1.25,1.56,-1.92,9.42
13612,1.24,0.19,-1.23,1.55,-1.93,9.42
13618,1.17,0.29,-1.21,1.55,-1.93,9.43
13623,1.09,0.36,-1.19,1.54,-1.94,9.44
13627,1.01,0.38,-1.19,1.54,-1.94,9.44
13632,0.81,0.37,-1.18,1.54,-1.94,9.45
13637,0.74,0.33,-1.18,1.55,-1.94,9.46
13642,0.70,0.30,-1.18,1.56,-1.93,9.46
13648,0.63,0.24,-1.18,1.58,-1.92,9.46
13652,0.59,0.19,-1.18,1.60,-1.90,9.45
13657,0.56,0.16,-1.19,1.60,-1.88,9.45
13662,0.51,0.12,-1.19,1.60,-1.84,9.42
13668,0.48,0.11,-1.19,1.59,-1.83,9.39
13672,0.46,0.11,-1.19,1.59,-1.83,9.36
13677,0.43,0.13,-1.20,1.61,-1.87,9.29
13682,0.43,0.16,-1.20,1.63,-1.88,9.27
13687,0.39,0.24,-1.22,1.69,-1.92,9.26
13692,0.37,0.27,-1.23,1.71,-1.93,9.26
13697,0.28,0.34,-1.23,1.77,-1.95,9.28
13702,-0.14,0.51,-1.18,1.94,-1.97,9.35
13707,-0.51,0.59,-1.03,2.05,-1.96,9.41
13712,-0.55,0.60,-1.02,2.06,-1.96,9.41
13718,-0.57,0.60,-1.01,2.07,-1.96,9.42
13722,-0.62,0.62,-0.98,2.08,-1.96,9.42
13727,-0.80,0.67,-0.84,2.12,-1.95,9.43
13732,-0.90,0.71,-0.73,2.13,-1.94,9.43
13737,-1.16,0.84,-0.35,2.17,-1.92,9.43
13743,-1.38,1.02,0.12,2.18,-1.90,9.39
13748,-1.52,1.16,0.45,2.19,-1.89,9.36
13752,-1.65,1.31,0.80,2.18,-1.87,9.33
13757,-1.70,1.38,0.95,2.18,-1.87,9.31
13763,-1.75,1.46,1.13,2.18,-1.86,9.29
13767,-1.80,1.52,1.29,2.17,-1.86,9.27
13772,-1.86,1.60,1.53,2.15,-1.85,9.25
13777,-1.87,1.62,1.57,2.15,-1.85,9.25
13782,-1.88,1.64,1.65,2.14,-1.85,9.24
13787,-1.94,1.67,1.82,2.12,-1.85,9.24
13792,-2.01,1.68,1.97,2.09,-1.85,9.24
13797,-2.08,1.62,2.12,2.04,-1.85,9.29
13802,-2.08,1.58,2.14,2.03,-1.85,9.32
13807,-2.08,1.53,2.14,2.02,-1.85,9.34
13812,-2.06,1.48,2.14,2.01,-1.85,9.37
13818,-2.02,1.42,2.13,2.00,-1.85,9.39
13822,-1.98,1.37,2.12,1.99,-1.85,9.41
13827,-1.94,1.33,2.12,1.99,-1.85,9.42
13832,-1.88,1.25,2.11,1.98,-1.85,9.45
13837,-1.81,1.16,2.11,1.97,-1.85,9.47
13842,-1.79,1.13,2.11,1.97,-1.85,9.47
13847,-1.74,1.07,2.10,1.96,-1.85,9.49
13852,-1.64,0.95,2.10,1.96,-1.85,9.51
13857,-1.55,0.85,2.10,1.95,-1.85,9.52
13862,-1.23,0.55,2.18,1.94,-1.86,9.54
13868,-1.10,0.44,2.22,1.93,-1.86,9.55
13872,-0.98,0.34,2.25,1.92,-1.86,9.55
13877,-0.89,0.28,2.28,1.91,-1.86,9.55
13882,-0.70,0.17,2.33,1.89,-1.86,9.54
13887,-0.63,0.14,2.35,1.87,-1.87,9.54
13893,-0.60,0.12,2.37,1.86,-1.87,9.54
13898,-0.57,0.10,2.39,1.85,-1.88,9.53
13903,-0.56,0.11,2.40,1.85,-1.89,9.53
13907,-0.56,0.12,2.41,1.84,-1.89,9.53
13912,-0.58,0.18,2.44,1.84,-1.90,9.53
13917,-0.75,0.89,2.96,1.78,-2.00,9.53
13922,-0.76,0.96,3.03,1.78,-2.00,9.53
13928,-0.76,0.99,3.06,1.78,-2.01,9.53
13932,-0.77,1.02,3.08,1.78,-2.01,9.52
13937,-0.77,1.06,3.13,1.78,-2.01,9.52
13942,-0.80,1.22,3.29,1.77,-2.03,9.52
13947,-0.81,1.32,3.39,1.77,-2.03,9.51
13952,-0.82,1.43,3.51,1.77,-2.03,9.50
13957,-0.84,1.65,3.68,1.77,-2.04,9.49
13963,-0.91,1.81,3.74,1.78,-2.04,9.48
13967,-0.99,1.96,3.76,1.78,-2.03,9.47
13972,-1.13,2.13,3.75,1.78,-2.02,9.45
13977,-1.29,2.32,3.70,1.78,-2.01,9.42
13982,-1.77,2.78,3.41,1.76,-1.99,9.30
13987,-2.07,2.94,3.23,1.75,-1.99,9.26
13992,-2.29,3.05,3.09,1.74,-1.99,9.24
13997,-2.70,3.23,2.85,1.73,-1.99,9.22
14003,-4.40,3.93,2.08,1.71,-2.00,9.24
14007,-4.70,4.11,1.97,1.70,-2.00,9.25
14012,-5.08,4.33,1.82,1.69,-2.00,9.26
14017,-5.31,4.45,1.72,1.69,-2.01,9.27
14022,-5.46,4.53,1.66,1.69,-2.01,9.28
14027,-5.85,4.75,1.53,1.68,-2.01,9.29
14032,-6.14,4.93,1.43,1.66,-2.01,9.30
14037,-6.26,5.02,1.39,1.66,-2.01,9.31
14043,-6.45,5.18,1.32,1.64,-2.01,9.32
14047,-7.37,6.04,1.29,1.60,-2.02,9.38
14052,-7.59,6.24,1.37,1.63,-2.03,9.39
14057,-7.75,6.37,1.42,1.65,-2.03,9.39
14062,-7.93,6.50,1.46,1.66,-2.03,9.39
14067,-8.88,7.17,1.71,1.72,-2.03,9.39
14072,-8.97,7.23,1.73,1.72,-2.03,9.39
14078,-9.05,7.29,1.76,1.72,-2.03,9.39
14082,-10.53,8.44,2.40,1.75,-2.05,9.40
14087,-11.29,9.06,2.86,1.74,-2.06,9.40
14092,-12.61,10.13,3.68,1.73,-2.09,9.40
14099,-13.08,10.47,3.98,1.71,-2.11,9.40
14104,-13.26,10.61,4.10,1.71,-2.11,9.40
14107,-13.39,10.70,4.18,1.70,-2.12,9.40
14113,-13.45,10.75,4.21,1.70,-2.12,9.40
14118,-13.53,10.82,4.27,1.70,-2.12,9.40
14122,-13.84,11.03,4.47,1.68,-2.13,9.40
14127,-14.05,11.16,4.60,1.67,-2.13,9.40
14132,-14.23,11.25,4.72,1.67,-2.14,9.40
14137,-14.51,11.38,4.91,1.66,-2.14,9.40
14143,-16.05,12.06,6.01,1.60,-2.17,9.41
14147,-16.58,12.31,6.43,1.60,-2.18,9.40
14154,-20.57,15.55,10.40,1.68,-2.19,9.40
14157,-20.76,15.84,10.61,1.68,-2.19,9.40
14163,-20.94,16.12,10.82,1.69,-2.19,9.40
14167,-21.05,16.30,10.95,1.70,-2.19,9.40
14172,-21.47,17.00,11.44,1.72,-2.20,9.40
14177,-21.70,17.42,11.73,1.73,-2.20,9.40
14184,-21.86,17.73,11.94,1.74,-2.20,9.40
14188,-21.98,17.95,12.10,1.74,-2.20,9.40
14192,-22.12,18.22,12.29,1.75,-2.20,9.40
14197,-22.29,18.54,12.52,1.76,-2.20,9.41
14203,-22.81,19.53,13.26,1.79,-2.21,9.41
14207,-23.03,19.98,13.60,1.81,-2.21,9.41
14212,-23.58,21.67,14.56,1.85,-2.22,9.41
14218,-23.76,22.36,14.90,1.86,-2.22,9.42
14222,-23.89,22.91,15.16,1.87,-2.22,9.42
14227,-23.99,23.33,15.36,1.88,-2.23,9.42
14232,-24.40,25.21,16.20,1.91,-2.23,9.43
14237,-25.34,30.09,18.39,2.00,-2.26,9.45
14242,-25.55,31.31,18.91,2.03,-2.26,9.45
14248,-25.69,32.56,19.33,2.04,-2.27,9.45
14253,-25.83,34.21,19.81,2.06,-2.27,9.46
14257,-26.16,64.58,26.14,2.21,-2.10,9.67
14262,-26.55,71.85,28.19,2.22,-1.94,9.82
14268,-26.92,75.26,29.14,2.22,-1.86,9.90
14272,-28.99,88.69,34.74,2.19,-1.45,10.31
14277,-30.65,95.08,38.41,2.15,-1.22,10.54
14282,-35.26,108.22,47.85,1.98,-0.80,11.02
14287,-50.93,128.06,71.69,1.33,-0.25,11.74
14293,-59.51,134.04,82.60,1.01,-0.17,11.91
14298,-67.21,138.57,93.56,0.75,-0.10,12.00
14302,-73.60,141.64,102.95,0.51,-0.15,12.06
14307,-78.31,143.55,109.60,0.34,-0.44,12.09
14312,-91.91,150.12,138.50,0.21,-2.16,12.06
14317,-96.55,155.02,151.42,0.27,-3.29,12.03
14322,-96.93,163.17,161.44,0.67,-4.40,12.12
14327,-93.67,174.49,164.85,0.94,-4.90,12.69
14332,-90.30,181.04,165.86,1.09,-5.05,13.23
14337,-77.14,194.38,165.46,1.43,-5.09,15.14
14342,-58.18,198.05,160.78,2.04,-4.93,17.44
14348,-50.22,193.47,156.73,2.37,-4.79,18.23
14352,-43.93,188.42,152.89,2.64,-4.65,18.72
14357,-29.09,170.88,140.96,3.30,-4.26,19.29
14362,-18.13,149.74,129.27,3.81,-3.86,19.14
14368,-5.44,119.09,115.04,4.33,-3.30,18.19
14372,11.64,59.00,93.23,4.88,-2.23,15.11
14377,16.42,27.25,86.49,4.98,-1.78,13.32
14383,18.24,8.81,83.80,4.99,-1.57,12.26
14387,19.41,-36.09,82.02,4.93,-1.39,10.07
14392,19.63,-72.29,82.68,4.82,-1.58,8.65
14397,20.33,-101.66,87.60,4.64,-2.55,7.76
14402,22.31,-114.08,92.92,4.44,-3.86,7.56
14407,23.70,-116.61,94.49,4.37,-4.33,7.55
14412,25.27,-118.52,95.97,4.31,-4.78,7.54
14417,30.35,-119.88,99.78,4.05,-6.08,7.49
14423,33.05,-119.95,100.51,3.90,-6.69,7.46
14428,34.49,-119.92,99.98,3.76,-7.18,7.41
14433,34.78,-119.77,86.82,3.29,-8.40,6.65
14437,34.27,-119.88,83.56,3.25,-8.51,6.53
14442,33.31,-120.12,79.47,3.20,-8.62,6.40
14447,29.23,-121.21,66.64,3.08,-8.81,6.08
14452,19.69,-124.12,35.03,2.91,-8.94,5.68
14457,16.86,-124.93,27.07,2.85,-8.93,5.65
14462,7.78,-126.33,6.82,2.61,-8.82,5.65
14467,5.18,-126.38,2.24,2.53,-8.76,5.66
14472,3.27,-126.34,-0.96,2.47,-8.71,5.68
14477,-3.37,-125.50,-11.51,2.28,-8.40,5.75
14482,-4.84,-125.16,-13.75,2.24,-8.31,5.77
14488,-13.10,-122.94,-26.39,2.07,-7.83,6.05
14493,-19.79,-120.96,-38.27,1.97,-7.57,6.46
14498,-22.73,-120.07,-44.43,1.93,-7.50,6.70
14502,-23.86,-119.74,-46.94,1.91,-7.48,6.79
14507,-29.50,-118.19,-61.54,1.78,-7.46,7.26
14512,-34.65,-117.34,-74.66,1.64,-7.40,7.70
14518,-37.06,-117.07,-80.24,1.56,-7.32,7.90
14523,-41.49,-116.68,-89.56,1.40,-7.03,8.34
14527,-43.63,-116.52,-93.63,1.31,-6.81,8.57
14532,-44.74,-116.44,-95.67,1.26,-6.68,8.70
14537,-46.78,-116.28,-99.30,1.15,-6.43,8.95
14542,-48.73,-116.12,-102.63,1.03,-6.14,9.22
14547,-50.20,-115.95,-105.68,0.92,-5.87,9.46
14553,-51.39,-115.73,-109.15,0.76,-5.60,9.74
14557,-51.30,-115.45,-111.07,0.70,-5.53,9.83
14562,-50.99,-115.28,-111.79,0.69,-5.51,9.87
14567,-49.53,-114.63,-113.82,0.67,-5.46,10.00
14572,-48.64,-114.29,-114.56,0.67,-5.44,10.05
14577,-48.10,-114.10,-115.00,0.67,-5.43,10.09
14583,-44.57,-113.08,-117.25,0.68,-5.35,10.33
14588,-42.72,-112.65,-118.16,0.69,-5.32,10.46
14592,-41.93,-112.50,-118.49,0.69,-5.31,10.51
14597,-39.96,-112.45,-118.99,0.71,-5.30,10.66
14602,-39.62,-112.70,-118.96,0.72,-5.30,10.68
14607,-39.43,-113.20,-118.84,0.72,-5.31,10.65
14612,-39.14,-113.96,-118.60,0.72,-5.35,10.54
14618,-39.08,-114.10,-118.56,0.72,-5.36,10.51
14622,-39.00,-114.28,-118.50,0.72,-5.37,10.48
14627,-38.71,-114.65,-118.37,0.71,-5.40,10.39
14632,-38.07,-115.08,-118.19,0.68,-5.46,10.27
14637,-37.72,-115.24,-118.08,0.66,-5.49,10.23
14642,-37.32,-115.24,-117.93,0.61,-5.51,10.20
14647,-37.12,-115.19,-117.84,0.59,-5.52,10.19
14653,-36.47,-114.26,-116.47,0.41,-5.54,10.19
14657,-36.51,-113.37,-115.56,0.32,-5.50,10.20
14662,-36.66,-112.18,-114.47,0.21,-5.42,10.21
14667,-36.82,-109.99,-112.48,0.05,-5.24,10.21
14672,-36.81,-108.86,-111.37,-0.02,-5.13,10.19
14677,-36.80,-108.25,-110.78,-0.06,-5.07,10.17
14682,-36.79,-107.86,-110.41,-0.08,-5.04,10.16
14687,-36.74,-106.66,-109.31,-0.13,-4.94,10.12
14692,-36.05,-103.94,-107.06,-0.21,-4.77,9.97
14698,-34.30,-99.72,-104.29,-0.29,-4.57,9.79
14702,-29.59,-90.05,-98.71,-0.46,-4.05,9.59
14707,-27.38,-85.40,-95.70,-0.59,-3.68,9.55
14712,-26.84,-84.24,-94.87,-0.63,-3.56,9.55
14717,-25.91,-82.22,-93.38,-0.71,-3.34,9.54
14722,-24.08,-77.87,-89.86,-0.90,-2.75,9.55
14727,-23.15,-75.14,-87.23,-1.04,-2.27,9.59
14732,-21.40,-69.09,-79.24,-1.32,-1.10,9.88
14737,-20.52,-65.71,-72.42,-1.44,-0.61,10.14
14742,-20.23,-64.89,-70.24,-1.47,-0.53,10.20
14747,-19.84,-63.75,-67.22,-1.50,-0.45,10.28
14752,-18.96,-61.74,-60.10,-1.57,-0.45,10.44
14757,-18.08,-60.58,-53.25,-1.64,-0.58,10.52
14762,-16.16,-59.29,-39.49,-1.80,-0.90,10.61
14768,-15.08,-59.39,-33.28,-1.89,-1.09,10.58
14772,-14.19,-59.76,-28.85,-1.96,-1.21,10.53
14777,-13.79,-59.96,-27.04,-1.99,-1.26,10.51
14782,-10.83,-61.67,-18.06,-2.14,-1.46,10.25
14787,-7.60,-63.36,-10.65,-2.28,-1.62,9.91
14792,1.22,-66.72,4.44,-2.70,-1.95,8.81
14797,4.18,-67.46,8.80,-2.89,-2.09,8.29
14802,4.50,-67.43,9.17,-2.91,-2.10,8.22
14807,4.66,-67.40,9.36,-2.93,-2.11,8.18
14812,5.28,-66.98,10.68,-3.00,-2.17,7.94
14817,5.61,-66.09,12.84,-3.06,-2.29,7.64
14822,5.90,-64.10,15.46,-3.12,-2.47,7.30
14827,6.15,-61.56,18.32,-3.16,-2.66,6.97
14833,6.43,-55.75,23.22,-3.19,-3.02,6.47
14838,6.67,-52.05,25.54,-3.19,-3.18,6.24
14842,7.17,-47.17,27.95,-3.18,-3.34,6.01
14847,8.50,-35.37,32.39,-3.10,-3.59,5.68
14852,10.14,-16.08,37.82,-2.85,-3.79,5.51
14857,10.34,-9.56,39.80,-2.70,-3.87,5.50
14862,10.24,-5.90,41.15,-2.56,-3.97,5.50
14868,10.18,-5.21,41.44,-2.53,-4.00,5.50
14873,10.01,-3.94,41.97,-2.47,-4.06,5.50
14877,9.37,-0.21,43.26,-2.27,-4.24,5.52
14882,8.77,2.58,44.14,-2.07,-4.44,5.55
14887,7.95,6.53,44.80,-1.80,-4.70,5.62
14892,6.32,16.95,44.99,-1.21,-5.13,5.85
14898,6.11,18.53,44.91,-1.15,-5.16,5.88
14903,5.80,20.89,44.75,-1.06,-5.21,5.93
14907,4.97,26.24,44.25,-0.92,-5.26,6.05
14912,3.82,32.77,43.47,-0.80,-5.30,6.19
14918,3.02,36.88,42.93,-0.72,-5.32,6.27
14922,1.75,41.83,42.12,-0.64,-5.32,6.35
14927,1.40,43.13,41.88,-0.61,-5.33,6.37
14932,0.66,46.06,41.39,-0.55,-5.33,6.41
14938,-2.37,56.87,39.15,-0.04,-5.45,6.51
14942,-4.31,63.85,36.99,0.59,-6.46,6.58
14947,-6.68,70.96,29.30,1.42,-8.75,6.79
14953,-6.90,72.75,25.64,1.85,-9.30,6.90
14957,-6.88,73.52,23.77,2.07,-9.53,6.95
14963,-6.53,75.26,18.83,2.71,-9.95,7.09
14968,-2.90,78.36,7.32,5.12,-9.41,7.41
14972,0.53,79.62,2.25,6.48,-8.54,7.53
14977,6.53,81.10,-4.46,8.35,-6.96,7.61
14982,13.28,82.28,-9.76,9.66,-5.43,7.60
14988,15.68,82.79,-11.59,9.94,-4.94,7.58
14992,23.51,85.30,-17.59,10.25,-3.57,7.48
14997,42.86,98.55,-32.94,9.73,-1.06,6.96
15002,49.63,109.23,-39.03,8.42,-0.41,6.50
15007,51.48,112.78,-40.35,7.90,-0.29,6.36
15012,60.29,133.02,-42.97,5.30,-0.00,5.50
15017,62.83,141.77,-42.96,4.35,0.05,5.06
15022,64.07,146.10,-42.83,3.90,0.07,4.86
15027,72.80,167.59,-39.47,1.86,0.06,4.54
15033,91.67,189.86,-24.38,0.41,-0.15,5.62
15037,95.74,194.22,-22.06,0.23,-0.18,5.93
15042,99.63,197.79,-19.78,0.02,-0.21,6.34
15047,100.42,198.23,-19.31,-0.03,-0.21,6.46
15052,101.88,198.47,-18.47,-0.09,-0.23,6.71
15057,106.22,195.51,-16.22,-0.11,-0.26,7.52
15062,109.62,192.46,-14.61,-0.02,-0.28,8.06
15067,189.55,77.64,-0.71,1.44,-0.32,21.65
15072,191.46,71.78,-0.91,1.47,-0.31,22.10
15077,192.54,67.75,-1.06,1.48,-0.31,22.36
15083,188.09,22.93,-1.87,1.64,0.02,21.53
15087,179.79,5.81,-1.56,1.71,0.60,20.39
15092,144.50,-3.26,1.94,1.91,1.31,17.29
15098,110.63,-3.41,6.60,2.06,1.61,15.03
15103,81.67,-0.22,11.59,2.17,1.28,13.53
15107,63.92,3.63,15.23,2.24,0.56,12.76
15112,24.88,14.43,23.02,2.36,-1.36,11.09
15118,-26.25,33.50,34.86,2.43,-4.66,9.46
15122,-34.97,39.11,35.35,2.40,-5.08,9.30
15127,-33.09,42.91,27.55,2.28,-4.40,9.47
15133,-31.23,43.29,24.47,2.25,-4.10,9.54
15137,-19.99,40.80,11.32,2.16,-2.86,9.77
15142,-15.91,39.14,7.58,2.15,-2.49,9.81
15147,-14.82,38.60,6.78,2.15,-2.39,9.81
15152,-6.49,33.24,2.18,2.16,-1.77,9.76
15157,-3.56,30.90,1.60,2.18,-1.60,9.70
15163,0.23,27.52,1.16,2.23,-1.42,9.58
15168,0.72,26.97,1.23,2.24,-1.42,9.56
15172,2.21,25.04,2.25,2.30,-1.53,9.42
15177,2.16,24.96,2.47,2.31,-1.57,9.40
15182,1.75,24.81,3.66,2.34,-1.75,9.35
15187,1.18,24.89,4.49,2.35,-1.87,9.34
15192,0.80,24.98,4.85,2.36,-1.91,9.35
15197,-0.01,25.08,5.24,2.34,-1.96,9.42
15203,-0.26,25.01,5.28,2.33,-1.97,9.45
15207,-0.40,24.91,5.24,2.31,-1.98,9.48
15212,-0.58,24.50,5.02,2.27,-1.98,9.53
15217,-0.61,24.35,4.95,2.26,-1.98,9.55
15222,-0.75,23.31,4.52,2.18,-1.98,9.60
15228,-0.83,22.00,4.12,2.10,-1.99,9.64
15233,-0.84,21.51,4.00,2.08,-1.99,9.65
15238,-0.84,21.12,3.92,2.06,-1.99,9.66
15242,-0.83,20.32,3.75,2.03,-2.00,9.67
15247,-0.82,19.94,3.68,2.01,-2.00,9.67
15252,-0.81,19.54,3.61,1.99,-2.00,9.67
15257,-0.45,14.87,3.00,1.83,-2.01,9.67
15262,-0.22,13.59,2.89,1.80,-2.01,9.67
15268,0.07,12.48,2.81,1.78,-2.02,9.65
15272,0.35,11.64,2.76,1.77,-2.02,9.64
15277,0.74,10.63,2.72,1.77,-2.02,9.62
15282,1.45,9.02,2.66,1.77,-2.02,9.57
15287,1.63,8.65,2.65,1.77,-2.02,9.55
15292,1.79,8.35,2.63,1.78,-2.02,9.48
15298,1.87,8.19,2.62,1.78,-2.02,9.40
15303,2.43,7.11,2.52,1.81,-2.00,8.05
15307,2.75,6.60,2.40,1.86,-1.99,5.73
15312,2.97,6.24,2.21,1.92,-1.98,2.47
15318,3.00,6.17,2.15,1.94,-1.98,1.44
15322,3.00,6.13,2.09,1.95,-1.98,0.75
15327,3.00,6.09,2.04,1.95,-1.97,0.47
15332,2.99,6.05,1.99,1.94,-1.97,0.74
15338,2.92,5.87,1.90,1.87,-1.94,4.43
15342,2.85,5.76,1.87,1.84,-1.94,5.67
15347,2.78,5.68,1.89,1.81,-1.93,6.92
15353,2.76,5.66,1.88,1.81,-1.93,7.12
15357,2.71,5.58,1.86,1.79,-1.92,7.83
15363,2.15,4.88,1.70,1.74,-1.91,9.60
15368,2.00,4.69,1.65,1.73,-1.91,9.82
15373,1.82,4.46,1.59,1.72,-1.91,10.00
15377,1.77,4.40,1.57,1.72,-1.91,10.04
15383,1.64,4.22,1.52,1.72,-1.91,10.19
15388,1.29,3.76,1.37,1.71,-1.91,10.30
15392,1.19,3.63,1.33,1.70,-1.91,10.25
15397,1.06,3.46,1.28,1.70,-1.91,10.17
15402,0.22,2.24,0.86,1.69,-1.91,9.86
15407,0.14,2.00,0.75,1.69,-1.91,9.77
15412,0.05,1.93,0.71,1.69,-1.91,9.73
15417,-0.06,2.10,0.79,1.69,-1.91,9.74
15422,-0.08,2.11,0.80,1.70,-1.91,9.74
15427,-0.08,2.06,0.78,1.70,-1.91,9.71
15433,0.03,1.24,0.34,1.71,-1.92,9.44
15437,0.05,1.22,0.32,1.72,-1.92,9.44
15442,0.06,1.21,0.31,1.72,-1.93,9.44
15447,0.13,1.07,0.20,1.74,-1.93,9.43
15452,0.15,1.04,0.18,1.74,-1.94,9.42
15457,0.17,0.97,0.15,1.75,-1.94,9.42
15462,0.18,0.77,0.12,1.76,-1.94,9.42
15468,-0.12,0.17,-0.05,1.73,-1.93,9.43
15472,-0.14,0.15,-0.06,1.72,-1.93,9.43
15477,-0.18,0.11,-0.08,1.72,-1.93,9.43
15482,-0.69,-0.34,-0.46,1.62,-1.92,9.46
15487,-0.69,-0.35,-0.46,1.61,-1.92,9.46
15492,-0.69,-0.35,-0.45,1.61,-1.91,9.46
15498,-0.68,-0.36,-0.45,1.60,-1.91,9.46
15502,-0.67,-0.45,-0.42,1.57,-1.92,9.46
15507,-0.67,-0.50,-0.40,1.55,-1.92,9.46
15512,-0.58,-0.66,-0.24,1.52,-1.93,9.40
15517,-0.55,-0.67,-0.20,1.52,-1.93,9.38
15522,-0.52,-0.68,-0.17,1.52,-1.93,9.37
15527,-0.51,-0.68,-0.15,1.52,-1.92,9.36
15532,-0.48,-0.71,-0.11,1.52,-1.92,9.35
15537,-0.44,-1.01,0.07,1.55,-1.91,9.35
15542,-0.44,-1.06,0.08,1.55,-1.91,9.36
15547,-0.44,-1.22,0.07,1.56,-1.91,9.38
15552,-0.43,-1.32,0.07,1.57,-1.91,9.39
15557,-0.42,-1.36,0.06,1.57,-1.91,9.40
15563,-0.41,-1.40,0.06,1.57,-1.91,9.40
15568,-0.21,-1.81,-0.06,1.61,-1.91,9.44
15572,-0.17,-1.85,-0.09,1.62,-1.91,9.44
15577,-0.13,-1.87,-0.12,1.64,-1.92,9.44
15583,-0.11,-1.86,-0.12,1.64,-1.93,9.44
15587,-0.11,-1.86,-0.13,1.64,-1.93,9.44
15592,-0.12,-1.85,-0.25,1.61,-1.92,9.47
15597,-0.15,-1.91,-0.39,1.61,-1.90,9.49
15602,-0.18,-1.96,-0.50,1.62,-1.89,9.51
15607,-0.20,-2.00,-0.57,1.63,-1.89,9.51
15612,-0.29,-2.11,-0.73,1.65,-1.88,9.52
15618,-0.59,-2.25,-0.95,1.71,-1.89,9.52
15622,-0.80,-2.23,-1.01,1.73,-1.89,9.47
15627,-0.90,-2.19,-1.04,1.74,-1.90,9.44
15633,-0.97,-2.13,-1.04,1.74,-1.90,9.40
15637,-0.98,-2.11,-1.04,1.74,-1.90,9.39
15642,-1.04,-2.01,-1.02,1.74,-1.90,9.36
15647,-1.10,-1.65,-0.92,1.73,-1.93,9.26
15652,-1.10,-1.61,-0.91,1.73,-1.93,9.25
15657,-1.08,-1.53,-0.88,1.73,-1.94,9.24
15662,-1.08,-1.51,-0.86,1.73,-1.94,9.23
15668,-1.07,-1.45,-0.84,1.73,-1.94,9.22
15672,-1.04,-1.35,-0.80,1.73,-1.95,9.21
15677,-0.99,-1.23,-0.76,1.73,-1.96,9.20
15682,-0.92,-1.06,-0.72,1.72,-1.96,9.20
15687,-0.89,-1.00,-0.71,1.72,-1.97,9.19
15692,-0.87,-0.95,-0.70,1.72,-1.97,9.19
15698,-0.70,-0.63,-0.60,1.72,-1.99,9.21
15703,-0.66,-0.59,-0.57,1.72,-2.00,9.22
15707,-0.60,-0.54,-0.51,1.73,-2.00,9.23
15712,-0.57,-0.52,-0.48,1.73,-2.00,9.24
15717,-0.49,-0.48,-0.39,1.72,-2.01,9.27
15722,-0.48,-0.48,-0.38,1.72,-2.01,9.27
15727,-0.45,-0.47,-0.36,1.72,-2.01,9.28
15732,-0.37,-0.44,-0.29,1.70,-2.01,9.30
15738,-0.33,-0.44,-0.25,1.70,-2.01,9.31
15742,-0.30,-0.43,-0.21,1.69,-2.01,9.31
15747,-0.25,-0.43,-0.14,1.69,-2.01,9.32
15752,-0.01,-0.50,0.08,1.66,-1.95,9.38
15757,-0.01,-0.50,0.08,1.66,-1.95,9.39
15763,-0.00,-0.50,0.07,1.66,-1.95,9.39
15768,0.01,-0.50,0.07,1.65,-1.94,9.39
15773,0.12,-0.55,0.15,1.61,-1.94,9.41
15778,0.15,-0.57,0.19,1.60,-1.94,9.41
15782,0.18,-0.59,0.26,1.58,-1.94,9.41
15787,0.22,-0.61,0.35,1.56,-1.94,9.42
15792,0.28,-0.61,0.48,1.53,-1.95,9.45
15797,0.30,-0.59,0.52,1.54,-1.95,9.47
15803,0.31,-0.59,0.52,1.55,-1.95,9.47
15807,0.31,-0.59,0.52,1.56,-1.95,9.48
15812,0.32,-0.59,0.52,1.58,-1.95,9.50
15817,0.32,-0.59,0.52,1.59,-1.94,9.50
15822,0.33,-0.58,0.51,1.60,-1.93,9.50
15827,0.33,-0.56,0.51,1.60,-1.93,9.50
15833,0.34,-0.53,0.51,1.60,-1.93,9.50
15839,0.33,-0.49,0.52,1.60,-1.93,9.49
15842,0.31,-0.48,0.52,1.59,-1.92,9.47
15847,0.30,-0.48,0.52,1.59,-1.92,9.47
15852,0.26,-0.51,0.51,1.57,-1.92,9.46
15857,0.23,-0.53,0.50,1.55,-1.91,9.45
15863,0.22,-0.54,0.48,1.54,-1.91,9.45
15868,0.21,-0.55,0.46,1.53,-1.91,9.44
15872,0.18,-0.58,0.34,1.47,-1.90,9.45
15877,0.17,-0.59,0.32,1.46,-1.90,9.45
15883,0.14,-0.61,0.27,1.44,-1.89,9.48
15887,0.12,-0.63,0.26,1.43,-1.90,9.49
15892,0.02,-0.73,0.22,1.43,-1.90,9.53
15898,-0.03,-0.80,0.19,1.42,-1.90,9.54
15903,-0.09,-0.89,0.16,1.42,-1.90,9.55
15907,-0.12,-0.94,0.14,1.42,-1.90,9.54
15912,-0.22,-1.16,-0.00,1.44,-1.91,9.46
15918,-0.27,-1.30,-0.13,1.48,-1.92,9.37
15922,-0.28,-1.34,-0.19,1.50,-1.92,9.33
15927,-0.27,-1.40,-0.27,1.53,-1.92,9.28
15932,-0.24,-1.47,-0.38,1.58,-1.93,9.23
15937,-0.19,-1.51,-0.44,1.61,-1.93,9.21
15942,-0.12,-1.53,-0.48,1.62,-1.93,9.21
15947,-0.00,-1.59,-0.54,1.62,-1.92,9.23
15952,0.09,-1.64,-0.58,1.60,-1.92,9.26
15957,0.28,-1.78,-0.66,1.54,-1.92,9.33
15962,0.32,-1.81,-0.67,1.53,-1.92,9.35
15967,0.41,-1.87,-0.69,1.51,-1.93,9.38
15972,0.69,-2.05,-0.70,1.46,-1.93,9.46
15977,0.80,-2.10,-0.70,1.46,-1.93,9.47
15983,0.92,-2.13,-0.71,1.45,-1.93,9.47
15987,1.07,-2.13,-0.72,1.46,-1.93,9.47
15992,1.41,-1.98,-0.72,1.50,-1.91,9.47
15997,1.45,-1.94,-0.71,1.52,-1.90,9.48
16002,1.47,-1.88,-0.72,1.56,-1.90,9.49
16007,1.47,-1.87,-0.73,1.57,-1.90,9.49
16012,1.46,-1.85,-0.75,1.57,-1.90,9.50
16018,1.40,-1.68,-0.89,1.59,-1.90,9.50
16022,1.39,-1.60,-0.93,1.59,-1.90,9.51
16027,1.35,-1.29,-1.03,1.59,-1.90,9.51
16032,1.34,-1.23,-1.05,1.59,-1.90,9.51
16037,1.33,-1.14,-1.07,1.59,-1.90,9.51
16042,1.32,-0.96,-1.10,1.58,-1.90,9.51
16047,1.31,-0.83,-1.12,1.58,-1.90,9.51
16052,1.30,-0.75,-1.13,1.57,-1.90,9.51
16057,1.28,-0.53,-1.16,1.56,-1.90,9.51
16062,1.27,-0.47,-1.16,1.55,-1.90,9.51
16067,1.24,-0.23,-1.18,1.53,-1.90,9.51
16072,1.16,0.06,-1.20,1.51,-1.90,9.50
16077,1.10,0.32,-1.20,1.51,-1.91,9.49
16082,1.09,0.51,-1.19,1.53,-1.91,9.48
16087,1.10,0.60,-1.19,1.54,-1.91,9.47
16092,1.16,0.67,-1.20,1.55,-1.92,9.47
16097,1.17,0.68,-1.21,1.55,-1.92,9.47
16103,1.18,0.69,-1.21,1.55,-1.92,9.47
16107,1.30,0.72,-1.27,1.56,-1.92,9.48
16112,1.36,0.72,-1.28,1.56,-1.93,9.49
16117,1.37,0.71,-1.27,1.55,-1.93,9.50
16122,1.34,0.69,-1.05,1.50,-1.95,9.52
16127,1.64,0.75,-0.57,1.31,-1.97,9.57
16133,1.73,0.77,-0.54,1.30,-1.96,9.57
16137,1.97,0.81,-0.52,1.27,-1.92,9.55
16142,2.09,0.83,-0.52,1.27,-1.90,9.53
16147,2.21,0.83,-0.51,1.27,-1.87,9.51
16153,2.32,0.84,-0.51,1.31,-1.84,9.47
16157,2.34,0.84,-0.51,1.36,-1.82,9.45
16163,2.28,0.84,-0.48,1.49,-1.81,9.42
16168,2.24,0.84,-0.47,1.55,-1.81,9.41
16173,2.10,0.85,-0.44,1.66,-1.83,9.40
16177,2.06,0.85,-0.43,1.69,-1.83,9.40
16183,1.87,0.87,-0.41,1.78,-1.86,9.40
16188,1.81,0.87,-0.40,1.81,-1.87,9.40
16192,1.59,0.90,-0.39,1.89,-1.90,9.41
16197,1.37,0.93,-0.37,1.96,-1.93,9.41
16203,1.19,0.95,-0.35,2.01,-1.95,9.42
16207,1.03,0.98,-0.31,2.06,-1.96,9.44
16212,0.98,0.99,-0.30,2.07,-1.96,9.45
16217,0.83,1.01,-0.16,2.13,-1.95,9.52
16222,0.81,1.02,-0.11,2.13,-1.94,9.53
16227,0.69,0.92,0.25,2.16,-1.91,9.59
16233,0.53,0.83,0.48,2.16,-1.89,9.59
16239,0.35,0.74,0.65,2.17,-1.88,9.59
16242,0.06,0.61,0.89,2.17,-1.88,9.58
16247,-0.03,0.57,0.95,2.17,-1.88,9.57
16252,-0.15,0.51,1.05,2.17,-1.88,9.57
16257,-0.65,0.29,1.37,2.16,-1.89,9.55
16262,-0.89,0.18,1.48,2.15,-1.90,9.54
16267,-1.03,0.10,1.55,2.15,-1.91,9.53
16272,-1.38,-0.05,1.64,2.16,-1.95,9.53
16277,-1.52,-0.11,1.66,2.17,-1.97,9.53
16283,-1.75,-0.15,1.68,2.26,-1.98,9.51
16287,-1.76,-0.15,1.69,2.26,-1.97,9.51
16292,-1.76,-0.15,1.70,2.26,-1.97,9.51
16298,-1.77,-0.15,1.71,2.26,-1.97,9.51
16302,-1.77,-0.14,1.84,2.27,-1.93,9.49
16307,-1.76,-0.13,1.89,2.26,-1.92,9.49
16312,-1.75,-0.12,1.99,2.25,-1.91,9.48
16318,-1.71,-0.08,2.19,2.20,-1.89,9.48
16322,-1.64,0.06,2.43,2.09,-1.87,9.50
16327,-1.63,0.09,2.46,2.07,-1.87,9.51
16332,-1.62,0.16,2.51,2.04,-1.88,9.54
16337,-1.62,0.29,2.61,1.97,-1.89,9.60
16342,-1.64,0.36,2.71,1.95,-1.89,9.62
16347,-1.67,0.38,2.77,1.95,-1.89,9.62
16352,-1.72,0.44,2.89,1.94,-1.89,9.63
16357,-1.87,0.54,3.22,1.93,-1.90,9.61
16362,-2.19,0.71,3.80,1.95,-1.90,9.51
16367,-2.27,0.74,3.87,1.96,-1.90,9.48
16372,-2.29,0.75,3.91,1.97,-1.90,9.46
16377,-2.31,0.75,3.96,1.99,-1.90,9.44
16384,-2.40,0.79,4.03,2.00,-1.90,9.40
16388,-3.01,1.20,4.10,2.08,-1.93,9.30
16392,-3.12,1.32,3.99,2.07,-1.93,9.29
16397,-4.53,2.97,3.27,1.99,-1.98,9.25
16402,-4.71,3.17,3.18,1.98,-1.98,9.25
16407,-4.98,3.45,3.06,1.95,-1.98,9.26
16412,-5.10,3.58,3.01,1.94,-1.99,9.26
16418,-5.31,3.81,2.93,1.92,-1.99,9.27
16422,-5.52,4.02,2.86,1.91,-2.00,9.28
16427,-5.95,4.38,2.77,1.86,-2.02,9.29
16433,-6.96,5.29,2.65,1.76,-2.09,9.32
16437,-7.15,5.47,2.67,1.74,-2.12,9.33
16442,-7.46,5.94,2.80,1.70,-2.17,9.33
16447,-7.73,6.71,3.11,1.66,-2.23,9.33
16452,-7.78,6.94,3.21,1.66,-2.24,9.33
16457,-7.79,7.11,3.32,1.65,-2.24,9.33
16462,-7.81,7.29,3.42,1.64,-2.23,9.33
16467,-7.84,7.47,3.47,1.63,-2.21,9.34
16472,-8.04,7.94,3.49,1.62,-2.16,9.33
16477,-8.51,8.88,3.17,1.63,-2.08,9.29
16483,-8.74,9.20,3.05,1.64,-2.06,9.28
16487,-9.02,9.53,2.90,1.65,-2.04,9.26
16492,-9.78,9.92,2.70,1.66,-2.03,9.24
16498,-10.05,10.01,2.65,1.66,-2.02,9.24
16502,-10.62,10.16,2.54,1.66,-2.02,9.23
16507,-11.48,10.39,2.35,1.66,-2.02,9.22
16512,-11.63,10.49,2.30,1.66,-2.03,9.22
16517,-11.73,10.59,2.25,1.66,-2.04,9.21
16522,-11.90,10.88,2.20,1.66,-2.08,9.20
16527,-11.93,11.00,2.21,1.65,-2.11,9.18
16532,-12.08,11.22,2.28,1.65,-2.17,9.13
16537,-12.36,11.39,2.47,1.64,-2.22,9.06
16542,-13.14,11.67,2.96,1.63,-2.28,8.51
16547,-13.78,11.82,3.34,1.61,-2.29,7.23
16552,-14.23,11.92,3.58,1.59,-2.29,5.44
16557,-14.55,12.03,3.84,1.56,-2.30,3.35
16562,-14.84,12.31,4.44,1.50,-2.32,0.57
16569,-14.88,12.41,4.65,1.49,-2.33,0.55
16573,-14.89,12.46,4.74,1.48,-2.33,0.58
16577,-14.94,12.59,4.98,1.47,-2.33,0.72
16583,-15.30,13.76,6.75,1.39,-2.34,3.23
16587,-15.72,15.40,8.74,1.32,-2.36,5.75
16592,-15.81,15.81,9.17,1.31,-2.37,6.28
16597,-16.01,16.72,10.16,1.28,-2.38,7.39
16602,-16.28,17.78,11.34,1.25,-2.40,8.46
16607,-17.58,25.27,15.89,1.29,-2.50,9.86
16612,-17.69,26.14,16.08,1.31,-2.50,9.76
16617,-17.77,26.68,16.16,1.32,-2.50,9.72
16622,-17.81,26.99,16.21,1.33,-2.49,9.69
16627,-17.98,27.96,16.35,1.34,-2.48,9.60
16634,-18.22,29.53,16.59,1.34,-2.45,9.51
16639,-18.98,35.12,17.87,1.19,-2.33,9.52
16642,-19.12,35.64,18.11,1.17,-2.32,9.53
16647,-19.24,35.98,18.32,1.15,-2.32,9.52
16652,-19.32,36.15,18.45,1.15,-2.32,9.52
16657,-19.75,36.93,19.07,1.12,-2.35,9.50
16662,-20.01,37.40,19.42,1.12,-2.38,9.47
16668,-20.21,37.78,19.68,1.12,-2.42,9.45
16672,-20.44,38.52,19.98,1.12,-2.49,9.43
16677,-20.40,39.25,20.14,1.13,-2.54,9.41
16683,-17.96,43.60,20.38,1.16,-2.66,9.39
16687,-17.32,44.37,20.30,1.16,-2.65,9.39
16692,-16.08,46.24,20.07,1.16,-2.60,9.40
16698,-15.48,48.48,19.93,1.17,-2.49,9.42
16703,-15.47,49.93,20.12,1.18,-2.44,9.44
16707,-16.07,52.80,21.57,1.19,-2.38,9.47
16712,-17.70,57.41,24.84,1.20,-2.31,9.53
16717,-19.45,61.57,28.30,1.21,-2.28,9.60
16722,-21.64,66.38,32.59,1.22,-2.23,9.69
16727,-24.54,72.13,38.19,1.23,-2.19,9.82
16732,-25.97,74.84,40.96,1.23,-2.16,9.88
16737,-27.74,78.18,44.40,1.24,-2.11,9.97
16742,-31.00,82.33,50.78,1.23,-1.86,10.09
16748,-31.91,83.23,53.02,1.21,-1.82,10.09
16752,-32.08,83.40,53.50,1.20,-1.82,10.09
16757,-32.26,83.57,54.03,1.20,-1.81,10.10
16762,-32.69,84.00,55.41,1.17,-1.79,10.09
16767,-32.93,84.23,56.22,1.15,-1.78,10.09
16772,-33.50,84.77,58.16,1.10,-1.77,10.08
16777,-34.14,85.35,60.23,1.05,-1.75,10.07
16783,-34.78,85.91,62.13,1.00,-1.74,10.06
16787,-37.07,88.11,68.81,0.82,-1.71,10.02
16792,-38.51,89.79,73.47,0.70,-1.69,9.99
16797,-42.28,94.67,86.12,0.39,-1.67,9.89
16802,-48.14,104.40,106.23,-0.12,-1.66,9.66
16807,-50.71,110.03,115.44,-0.36,-1.68,9.50
16812,-54.63,119.57,128.89,-0.72,-1.75,9.22
16817,-56.04,125.96,135.28,-0.87,-1.85,9.06
16822,-56.05,128.37,137.03,-0.90,-1.90,9.01
16827,-55.90,129.93,137.92,-0.91,-1.94,8.99
16832,-54.98,134.49,139.39,-0.91,-2.06,8.94
16837,-53.40,138.76,139.74,-0.88,-2.19,8.96
16842,-52.63,139.82,139.72,-0.86,-2.24,8.98
16848,-48.48,143.44,138.96,-0.71,-2.41,9.08
16852,-38.73,146.27,134.64,-0.18,-2.51,9.35
16857,-17.43,141.07,121.02,1.56,-2.18,9.91
16862,-11.68,134.56,116.15,2.27,-1.91,10.03
16867,-9.02,129.95,113.73,2.62,-1.76,10.08
16872,-5.22,122.03,110.08,3.13,-1.52,10.15
16877,1.07,103.33,103.00,4.01,-1.10,10.24
16883,9.76,38.83,87.86,5.54,-0.21,10.35
16887,10.80,19.09,84.91,5.73,0.02,10.36
16892,11.67,-3.22,81.66,5.84,0.19,10.29
16897,11.92,-16.53,79.90,5.81,0.19,10.21
16902,12.06,-47.01,76.50,5.58,0.01,10.00
16907,12.10,-84.49,73.17,5.26,-0.48,9.60
16912,12.18,-100.33,71.02,5.03,-0.93,9.32
16917,12.38,-107.91,70.34,4.88,-1.47,9.14
16922,15.09,-124.11,63.84,4.20,-5.95,8.44
16927,15.48,-123.42,61.56,4.15,-6.39,8.42
16932,15.76,-121.98,58.25,4.09,-6.82,8.40
16937,15.75,-121.66,55.15,4.03,-6.98,8.39
16942,14.50,-121.33,36.41,3.66,-7.55,8.25
16947,13.85,-121.51,32.54,3.57,-7.61,8.18
16952,12.98,-121.74,28.07,3.45,-7.67,8.10
16957,12.42,-121.86,25.52,3.39,-7.70,8.06
16963,10.09,-122.18,17.93,3.18,-7.76,7.91
16968,8.52,-122.32,14.57,3.07,-7.79,7.83
16972,5.91,-122.39,9.60,2.93,-7.81,7.72
16977,-0.22,-122.09,-0.11,2.67,-7.82,7.55
16983,-2.06,-121.93,-2.35,2.61,-7.82,7.51
16988,-11.22,-120.49,-16.32,2.38,-7.78,7.37
16992,-20.80,-117.25,-42.71,2.19,-7.59,7.46
16997,-21.47,-116.92,-45.65,2.18,-7.56,7.49
17003,-22.44,-116.44,-50.09,2.15,-7.52,7.55
17007,-24.02,-115.72,-57.19,2.10,-7.46,7.69
17012,-26.50,-114.55,-69.24,1.98,-7.36,8.06
17017,-26.86,-114.40,-70.83,1.97,-7.35,8.12
17022,-28.90,-113.73,-78.49,1.88,-7.30,8.40
17027,-32.20,-113.04,-87.54,1.74,-7.27,8.84
17033,-34.45,-112.61,-93.10,1.63,-7.25,9.09
17038,-36.51,-112.16,-97.75,1.52,-7.22,9.26
17043,-37.62,-111.94,-99.09,1.46,-7.20,9.39
17047,-37.98,-111.90,-98.73,1.43,-7.19,9.46
17052,-38.43,-111.90,-98.36,1.38,-7.18,9.51
17058,-39.04,-111.88,-99.49,1.31,-7.16,9.53
17062,-39.57,-111.83,-100.89,1.26,-7.15,9.55
17068,-44.08,-111.04,-109.83,0.45,-6.45,9.51
17072,-39.97,-93.57,-125.08,-0.39,-3.60,8.16
17077,-38.37,-86.99,-128.19,-0.39,-3.23,7.83
17083,-36.75,-78.15,-129.18,-0.30,-2.86,7.69
17087,-36.34,-75.29,-128.86,-0.24,-2.77,7.76
17092,-35.42,-72.51,-127.63,-0.11,-2.77,8.05
17097,-32.76,-70.48,-124.26,0.20,-3.12,9.07
17103,-26.30,-74.56,-122.13,0.53,-4.10,9.97
17107,-21.23,-81.56,-121.62,0.73,-4.90,10.28
17112,-20.52,-83.16,-121.57,0.75,-5.03,10.31
17117,-20.00,-84.47,-121.55,0.77,-5.12,10.32
17122,-19.43,-86.16,-121.53,0.79,-5.23,10.33
17127,-19.00,-89.49,-121.37,0.81,-5.33,10.33
17133,-19.08,-91.13,-121.17,0.81,-5.35,10.32
17137,-22.13,-95.88,-119.02,0.76,-5.24,10.30
17142,-22.92,-96.72,-118.03,0.74,-5.26,10.27
17147,-23.32,-97.20,-117.42,0.72,-5.27,10.25
17152,-24.64,-100.12,-113.10,0.56,-5.32,10.04
17157,-24.78,-101.45,-110.65,0.44,-5.29,9.92
17162,-24.79,-101.61,-110.30,0.42,-5.29,9.91
17168,-24.78,-101.93,-109.45,0.38,-5.28,9.88
17172,-24.72,-102.87,-106.16,0.24,-5.25,9.81
17177,-24.72,-103.01,-104.21,0.20,-5.22,9.80
17182,-24.74,-103.05,-101.16,0.15,-5.16,9.80
17187,-24.75,-103.04,-98.44,0.09,-5.09,9.79
17192,-24.76,-102.96,-97.68,0.08,-5.07,9.80
17197,-24.76,-102.68,-96.39,0.06,-5.03,9.80
17202,-24.68,-100.60,-87.13,-0.28,-4.59,9.80
17207,-24.66,-100.07,-85.73,-0.36,-4.47,9.79
17212,-24.64,-99.60,-84.59,-0.44,-4.37,9.79
17217,-24.63,-99.18,-83.63,-0.50,-4.27,9.78
17222,-24.59,-97.88,-80.73,-0.70,-3.98,9.74
17227,-24.55,-97.15,-79.07,-0.79,-3.84,9.72
17232,-24.47,-96.13,-76.88,-0.91,-3.66,9.68
17237,-24.42,-95.59,-75.70,-0.97,-3.57,9.66
17243,-24.29,-94.14,-72.45,-1.12,-3.35,9.59
17248,-23.09,-89.96,-61.00,-1.44,-2.82,9.40
17253,-19.14,-83.89,-43.98,-1.76,-2.27,9.16
17257,-6.63,-73.24,-22.51,-2.10,-1.94,8.56
17262,-4.56,-71.42,-20.26,-2.15,-1.97,8.42
17267,-3.34,-69.99,-18.81,-2.18,-2.01,8.32
17273,-1.06,-66.93,-16.08,-2.25,-2.09,8.12
17277,1.15,-63.12,-12.64,-2.33,-2.20,7.90
17282,1.97,-61.12,-10.78,-2.35,-2.25,7.82
17287,2.24,-60.20,-9.94,-2.37,-2.28,7.79
17292,2.60,-58.63,-8.50,-2.38,-2.32,7.74
17297,3.73,-54.89,-4.85,-2.43,-2.43,7.60
17303,4.92,-51.55,-1.13,-2.46,-2.52,7.48
17307,7.66,-42.48,11.22,-2.51,-2.76,7.17
17312,8.54,-39.97,15.38,-2.52,-2.87,7.01
17318,9.08,-37.33,19.64,-2.51,-3.14,6.62
17322,9.05,-35.89,21.23,-2.49,-3.39,6.28
17327,7.82,-31.96,22.37,-2.39,-3.89,5.67
17332,7.37,-30.42,22.43,-2.35,-3.98,5.58
17337,6.00,-24.48,22.55,-2.22,-4.17,5.44
17342,4.81,-18.03,22.87,-2.12,-4.24,5.46
17348,4.22,-14.99,23.08,-2.08,-4.27,5.49
17352,3.19,-9.95,23.53,-1.99,-4.31,5.57
17357,0.41,1.48,24.75,-1.75,-4.42,5.73
17363,-0.43,4.12,25.06,-1.67,-4.45,5.76
17368,-2.01,9.24,25.58,-1.53,-4.52,5.83
17372,-3.28,13.00,25.87,-1.42,-4.56,5.87
17377,-5.18,18.43,26.23,-1.25,-4.63,5.92
17382,-5.83,20.40,26.33,-1.18,-4.65,5.95
17387,-6.19,21.50,26.39,-1.14,-4.66,5.97
17392,-6.80,23.41,26.44,-1.08,-4.68,5.99
17397,-8.02,27.06,26.31,-0.93,-4.66,6.05
17403,-9.56,31.49,26.07,-0.70,-4.62,6.18
17408,-10.73,35.15,25.88,-0.53,-4.57,6.29
17412,-11.08,36.27,25.83,-0.48,-4.56,6.33
17417,-12.95,43.55,25.58,-0.21,-4.47,6.56
17422,-14.60,53.24,25.16,0.11,-4.41,6.81
17428,-14.87,55.53,24.53,0.19,-4.40,6.86
17432,-15.09,57.58,23.65,0.26,-4.40,6.91
17439,-15.22,58.94,22.92,0.31,-4.40,6.94
17443,-15.47,61.78,21.08,0.45,-4.39,7.01
17447,-15.80,66.03,16.24,0.72,-4.40,7.12
17452,-15.93,67.76,13.34,0.87,-4.40,7.17
17457,-16.03,69.64,8.46,1.14,-4.35,7.22
17463,-14.47,73.44,-13.17,2.41,-2.68,7.41
17468,-13.81,73.83,-16.65,2.62,-2.24,7.46
17472,-12.24,74.55,-21.96,2.93,-1.47,7.59
17477,-4.29,76.49,-32.25,3.54,0.65,8.22
17482,-0.26,77.31,-35.39,3.71,1.43,8.53
17487,5.91,78.84,-38.84,3.89,2.35,8.99
17492,12.42,81.00,-40.26,4.04,3.12,9.44
17498,18.89,83.62,-39.63,4.12,3.64,9.86
17504,22.96,85.42,-38.62,4.13,3.88,10.13
17508,53.29,109.20,-20.97,3.92,4.29,11.93
17512,58.50,118.35,-13.97,3.68,3.83,12.44
17517,59.47,120.11,-12.51,3.62,3.63,12.49
17522,63.10,124.77,-7.67,3.38,2.78,12.45
17527,66.17,126.39,-4.67,3.19,2.14,12.20
17533,74.98,127.50,1.91,2.46,-0.02,10.40
17537,86.45,119.04,0.82,2.57,-0.94,7.58
17542,88.40,117.33,0.22,2.63,-1.03,7.11
17547,96.95,110.93,-2.67,2.98,-1.24,5.32
17552,123.72,96.59,-13.11,4.41,-1.35,1.36
17557,130.42,92.86,-16.24,4.84,-1.27,0.68
17562,136.03,90.01,-18.84,5.19,-0.77,0.07
17568,140.03,89.61,-20.76,5.45,-0.09,-0.26
17573,147.35,91.98,-24.41,5.94,1.26,-0.59
17577,155.64,97.69,-28.99,6.56,7.06,-0.76
17582,155.87,102.92,-29.09,6.45,10.28,0.26
17587,152.62,100.95,-26.19,5.21,12.88,5.05
17592,128.32,80.35,-15.50,3.89,10.01,9.63
17597,85.25,62.46,1.01,3.22,4.16,11.05
17602,23.75,46.38,23.80,2.70,-3.24,11.19
17607,-28.46,38.50,41.95,2.44,-8.69,10.42
17612,-32.16,38.26,42.83,2.42,-8.89,10.30
17617,-38.20,38.01,43.36,2.40,-8.85,9.87
17622,-37.63,38.15,42.76,2.40,-8.63,9.78
17627,-30.26,39.73,37.72,2.44,-6.95,9.51
17633,-24.98,40.37,34.15,2.46,-5.93,9.38
17637,-11.16,40.09,24.65,2.52,-3.68,9.08
17642,-5.62,39.25,19.57,2.54,-2.81,8.99
17647,-0.63,35.64,13.26,2.51,-1.98,9.09
17652,-0.11,34.71,12.12,2.49,-1.84,9.12
17657,0.18,34.07,11.43,2.47,-1.76,9.15
17662,0.96,31.44,9.03,2.42,-1.46,9.23
17667,0.09,24.46,5.68,2.28,-1.04,9.36
17672,-0.05,23.97,5.44,2.27,-1.03,9.36
17677,-0.41,22.99,4.90,2.26,-1.05,9.37
17682,-1.16,20.58,3.79,2.24,-1.19,9.36
17687,-1.52,19.46,3.30,2.24,-1.29,9.35
17692,-2.30,16.98,2.37,2.23,-1.52,9.33
17698,-3.53,12.69,1.29,2.22,-2.03,9.30
17703,-3.59,12.40,1.23,2.22,-2.06,9.30
17707,-3.66,12.01,1.16,2.22,-2.11,9.30
17712,-3.67,11.89,1.14,2.21,-2.13,9.30
17717,-3.69,11.31,1.09,2.21,-2.18,9.30
17723,-3.67,11.14,1.08,2.20,-2.20,9.30
17727,-3.40,10.46,1.07,2.18,-2.24,9.31
17732,-3.13,10.01,1.08,2.16,-2.26,9.32
17737,-2.95,9.79,1.09,2.15,-2.26,9.32
17742,-2.42,9.43,1.15,2.14,-2.25,9.32
17748,1.86,7.62,1.73,2.10,-2.10,9.31
17752,2.20,7.46,1.79,2.10,-2.07,9.31
17757,2.29,7.41,1.81,2.10,-2.06,9.31
17762,2.35,7.38,1.82,2.10,-2.05,9.31
17768,2.74,7.13,1.90,2.11,-2.00,9.31
17772,2.92,6.91,1.93,2.12,-1.97,9.34
17777,3.01,6.69,1.91,2.13,-1.94,9.40
17783,3.00,6.61,1.86,2.12,-1.93,9.44
17787,2.75,6.31,1.59,2.00,-1.92,9.51
17792,2.62,6.23,1.52,1.97,-1.92,9.52
17797,2.47,6.14,1.45,1.94,-1.92,9.53
17802,2.30,6.04,1.38,1.90,-1.92,9.53
17807,2.08,5.89,1.30,1.87,-1.92,9.53
17812,1.71,5.63,1.17,1.84,-1.92,9.53
17818,1.34,5.32,1.04,1.81,-1.92,9.53
17822,0.94,4.86,0.86,1.78,-1.92,9.52
17827,0.76,4.57,0.76,1.77,-1.93,9.52
17833,0.49,4.01,0.56,1.73,-1.96,9.51
17837,0.25,3.27,0.30,1.66,-2.02,9.48
17842,0.21,3.07,0.24,1.65,-2.03,9.46
17848,0.17,2.10,0.09,1.65,-2.06,9.41
17853,0.22,1.96,0.09,1.67,-2.06,9.41
17857,0.41,1.77,0.13,1.72,-2.04,9.40
17862,0.50,1.71,0.16,1.74,-2.04,9.40
17868,0.70,1.61,0.24,1.76,-2.03,9.40
17872,0.82,1.55,0.30,1.77,-2.02,9.40
17877,1.02,1.45,0.41,1.77,-2.01,9.41
17882,1.10,1.41,0.46,1.77,-2.00,9.41
17887,1.24,1.33,0.54,1.76,-1.99,9.41
17892,1.54,1.12,0.74,1.72,-1.95,9.43
17897,1.62,1.05,0.80,1.70,-1.94,9.45
17903,1.65,1.01,0.82,1.69,-1.93,9.46
17908,1.68,0.93,0.85,1.66,-1.92,9.49
17912,1.49,0.67,0.84,1.62,-1.93,9.58
17917,1.32,0.54,0.81,1.61,-1.93,9.61
17922,1.09,0.34,0.73,1.60,-1.94,9.62
17927,0.78,-0.01,0.56,1.60,-1.95,9.62
17932,0.74,-0.07,0.52,1.60,-1.96,9.62
17937,0.72,-0.09,0.50,1.60,-1.96,9.62
17942,0.64,-0.18,0.44,1.60,-1.96,9.62
17948,0.33,-0.61,0.17,1.60,-2.00,9.69
17952,0.23,-0.81,0.10,1.60,-2.02,9.71
17957,0.19,-0.89,0.08,1.60,-2.02,9.70
17962,0.14,-1.04,0.05,1.59,-2.02,9.69
17968,0.13,-1.08,0.04,1.59,-2.02,9.67
17972,0.12,-1.10,0.04,1.59,-2.02,9.66
17977,0.13,-1.11,0.04,1.60,-2.02,9.64
17982,0.13,-1.11,0.04,1.60,-2.02,9.63
17987,0.14,-1.09,0.05,1.62,-2.02,9.60
17992,0.18,-1.05,0.12,1.66,-2.03,9.51
17997,0.54,-1.29,0.37,1.78,-2.02,9.28
18002,0.65,-1.55,0.40,1.80,-2.01,9.25
18007,0.66,-1.58,0.41,1.80,-2.00,9.24
18012,0.67,-1.64,0.41,1.81,-2.00,9.24
18018,0.68,-1.67,0.41,1.81,-2.00,9.24
18022,0.68,-1.75,0.42,1.82,-1.99,9.24
18027,0.62,-1.87,0.44,1.84,-1.97,9.26
18033,0.59,-1.90,0.44,1.85,-1.96,9.28
18037,0.49,-1.51,0.49,1.83,-1.93,9.35
18042,0.42,-1.32,0.50,1.76,-1.91,9.47
18048,0.40,-1.31,0.50,1.76,-1.91,9.49
18052,0.39,-1.30,0.50,1.75,-1.91,9.50
18057,0.38,-1.29,0.50,1.75,-1.90,9.51
18062,0.37,-1.29,0.49,1.75,-1.90,9.52
18067,0.30,-1.23,0.45,1.73,-1.89,9.54
18072,0.27,-1.20,0.42,1.73,-1.89,9.54
18077,-0.05,-1.05,0.06,1.73,-1.87,9.51
18082,-0.12,-1.03,-0.03,1.74,-1.87,9.51
18087,-0.28,-0.96,-0.23,1.77,-1.87,9.50
18092,-0.31,-0.95,-0.27,1.77,-1.87,9.50
18097,-0.35,-0.93,-0.31,1.78,-1.88,9.49
18103,-0.49,-0.87,-0.48,1.81,-1.88,9.49
18107,-0.55,-0.84,-0.54,1.82,-1.89,9.48
18112,-0.58,-0.82,-0.57,1.82,-1.89,9.48
18118,-0.71,-0.74,-0.71,1.85,-1.91,9.48
18122,-0.84,-0.66,-0.81,1.86,-1.94,9.48
18127,-0.87,-0.61,-0.85,1.87,-1.96,9.48
18132,-0.82,-0.57,-0.84,1.87,-1.98,9.47
18137,-0.79,-0.56,-0.82,1.87,-1.98,9.47
18142,-0.69,-0.53,-0.75,1.88,-1.98,9.45
18147,-0.67,-0.52,-0.73,1.88,-1.98,9.45
18152,-0.60,-0.50,-0.68,1.88,-1.98,9.44
18157,-0.47,-0.46,-0.54,1.89,-1.97,9.43
18162,-0.34,-0.42,-0.40,1.89,-1.97,9.42
18168,-0.27,-0.41,-0.33,1.89,-1.96,9.41
18172,-0.22,-0.40,-0.26,1.88,-1.96,9.41
18178,0.06,-0.37,0.03,1.87,-1.93,9.36
18183,0.13,-0.37,0.09,1.87,-1.92,9.33
18187,0.14,-0.37,0.12,1.87,-1.91,9.31
18192,0.15,-0.38,0.12,1.87,-1.91,9.31
18197,0.16,-0.40,0.15,1.86,-1.91,9.29
18202,0.16,-0.45,0.18,1.85,-1.91,9.26
18207,0.16,-0.46,0.18,1.85,-1.92,9.26
18212,0.15,-0.48,0.18,1.84,-1.92,9.26
18217,0.12,-0.52,0.19,1.83,-1.93,9.26
18222,0.10,-0.54,0.19,1.82,-1.93,9.26
18227,0.07,-0.57,0.19,1.82,-1.94,9.26
18232,0.06,-0.58,0.19,1.81,-1.94,9.26
18239,-0.10,-0.73,0.17,1.77,-1.96,9.38
18243,-0.11,-0.75,0.17,1.75,-1.96,9.41
18248,-0.12,-0.77,0.16,1.74,-1.96,9.43
18253,-0.13,-0.79,0.16,1.72,-1.96,9.45
18257,-0.13,-0.80,0.16,1.67,-1.97,9.49
18262,-0.13,-0.79,0.15,1.64,-1.97,9.51
18267,-0.11,-0.77,0.11,1.57,-1.97,9.54
18272,-0.10,-0.74,0.09,1.55,-1.97,9.55
18277,-0.08,-0.71,0.07,1.53,-1.97,9.55
18283,-0.08,-0.69,0.06,1.53,-1.98,9.55
18287,-0.06,-0.65,0.05,1.51,-1.98,9.56
18292,-0.04,-0.61,0.05,1.50,-1.98,9.56
18298,-0.01,-0.54,0.06,1.49,-1.97,9.56
18303,0.04,-0.42,0.08,1.48,-1.97,9.56
18307,0.05,-0.42,0.10,1.49,-1.97,9.56
18312,0.04,-0.46,0.11,1.50,-1.96,9.56
18318,-0.07,-0.93,0.04,1.56,-1.96,9.55
18322,-0.10,-1.06,0.01,1.58,-1.95,9.55
18327,-0.13,-1.15,-0.01,1.59,-1.95,9.55
18332,-0.16,-1.29,-0.08,1.60,-1.95,9.54
18337,-0.19,-1.39,-0.16,1.60,-1.94,9.54
18342,-0.21,-1.44,-0.24,1.60,-1.94,9.54
18347,-0.22,-1.46,-0.27,1.59,-1.94,9.54
18352,-0.23,-1.47,-0.28,1.59,-1.94,9.53
18357,-0.22,-1.47,-0.29,1.59,-1.94,9.53
18362,-0.22,-1.46,-0.30,1.58,-1.94,9.53
18368,-0.15,-1.45,-0.65,1.55,-1.93,9.48
18372,-0.15,-1.46,-0.66,1.55,-1.93,9.48
18377,-0.14,-1.47,-0.67,1.55,-1.92,9.48
18382,-0.13,-1.47,-0.69,1.54,-1.92,9.47
18387,-0.13,-1.48,-0.70,1.54,-1.92,9.47
18392,-0.13,-1.50,-0.72,1.54,-1.92,9.45
18398,-0.12,-1.56,-0.76,1.54,-1.92,9.43
18402,-0.10,-1.60,-0.81,1.54,-1.93,9.42
18407,-0.09,-1.63,-0.85,1.54,-1.93,9.42
18412,-0.01,-1.72,-0.99,1.54,-1.94,9.41
18417,0.09,-1.78,-1.10,1.53,-1.95,9.41
18422,0.22,-1.79,-1.19,1.52,-1.95,9.41
18427,0.32,-1.78,-1.24,1.51,-1.96,9.40
18432,0.35,-1.76,-1.25,1.51,-1.96,9.40
18437,0.42,-1.71,-1.25,1.51,-1.96,9.39
18442,0.53,-1.59,-1.23,1.53,-1.96,8.76
18447,0.59,-1.51,-1.21,1.56,-1.96,7.30
18452,0.63,-1.46,-1.19,1.58,-1.96,5.39
18457,0.66,-1.42,-1.18,1.59,-1.96,4.37
18462,0.69,-1.38,-1.17,1.60,-1.97,3.23
18467,0.70,-1.36,-1.16,1.61,-1.97,2.36
18472,0.70,-1.36,-1.16,1.61,-1.97,2.25
18477,0.70,-1.35,-1.16,1.61,-1.97,2.18
18482,0.70,-1.35,-1.16,1.61,-1.97,1.88
18487,0.70,-1.34,-1.15,1.61,-1.97,1.73
18492,0.71,-1.32,-1.15,1.61,-1.97,1.74
18498,0.73,-1.28,-1.13,1.62,-1.97,2.09
18502,0.79,-1.12,-1.08,1.63,-1.97,3.12
18507,0.88,-0.77,-0.98,1.63,-1.96,5.26
18514,0.90,-0.70,-0.96,1.63,-1.96,5.78
18517,0.95,-0.47,-0.90,1.62,-1.96,7.54
18522,0.96,-0.40,-0.88,1.62,-1.95,8.04
18528,1.01,-0.23,-0.83,1.59,-1.95,9.11
18533,1.04,-0.11,-0.81,1.56,-1.93,9.67
18537,1.07,-0.02,-0.79,1.53,-1.92,9.95
18542,1.07,0.02,-0.79,1.53,-1.91,9.93
18547,1.07,0.05,-0.80,1.53,-1.90,9.88
18552,1.05,0.10,-0.80,1.54,-1.89,9.74
18557,1.03,0.11,-0.81,1.55,-1.88,9.66
18562,1.00,0.14,-0.82,1.57,-1.88,9.58
18567,0.96,0.23,-0.83,1.58,-1.88,9.50
18572,0.95,0.29,-0.84,1.58,-1.88,9.47
18577,0.94,0.37,-0.85,1.57,-1.88,9.46
18582,0.93,0.53,-0.87,1.56,-1.88,9.42
18587,0.93,0.62,-0.91,1.56,-1.88,9.38
18592,0.93,0.71,-0.94,1.55,-1.89,9.34
18597,0.93,0.96,-0.95,1.54,-1.89,9.25
18602,0.94,1.14,-0.91,1.53,-1.89,9.20
18608,0.94,1.23,-0.86,1.53,-1.87,9.20
18613,0.96,1.37,-0.74,1.54,-1.84,9.22
18617,1.01,1.50,-0.60,1.57,-1.81,9.30
18622,1.04,1.53,-0.54,1.62,-1.79,9.42
18627,0.98,1.34,-0.54,1.67,-1.80,9.54
18632,0.89,1.21,-0.55,1.69,-1.82,9.57
18637,0.83,1.10,-0.56,1.70,-1.83,9.57
18642,0.77,0.94,-0.57,1.73,-1.84,9.56
18648,0.74,0.74,-0.59,1.76,-1.84,9.53
18653,0.74,0.59,-0.60,1.81,-1.86,9.49
18657,0.77,0.50,-0.60,1.85,-1.87,9.46
18662,0.79,0.41,-0.61,1.93,-1.90,9.42
18667,0.75,0.37,-0.59,1.99,-1.93,9.40
18672,0.69,0.38,-0.52,2.06,-1.97,9.39
18677,0.61,0.48,-0.33,2.15,-2.03,9.38
18683,0.61,0.59,-0.14,2.18,-2.05,9.38
18687,0.64,0.71,0.06,2.20,-2.06,9.40
18692,0.64,0.82,0.25,2.20,-2.06,9.42
18697,0.63,0.90,0.40,2.20,-2.05,9.44
18703,0.62,0.94,0.49,2.20,-2.04,9.45
18707,0.50,1.02,0.80,2.19,-2.01,9.45
18713,0.40,1.04,0.95,2.19,-2.00,9.45
18718,0.23,1.04,1.12,2.18,-1.99,9.42
18722,-0.03,1.01,1.33,2.17,-1.99,9.39
18727,-0.72,0.89,1.67,2.14,-1.98,9.35
18732,-0.94,0.83,1.78,2.13,-1.98,9.34
18737,-1.05,0.78,1.80,2.13,-1.98,9.33
18742,-1.04,0.77,1.78,2.13,-1.98,9.33
18748,-1.07,0.75,1.77,2.13,-1.98,9.33
18753,-1.22,0.70,1.83,2.12,-1.98,9.34
18757,-1.65,0.42,2.14,2.09,-1.94,9.35
18762,-1.62,0.41,2.20,2.10,-1.93,9.35
18768,-1.57,0.40,2.26,2.10,-1.92,9.35
18772,-0.93,0.52,2.65,2.29,-1.88,9.34
18777,-0.93,0.53,2.65,2.29,-1.88,9.34
18783,-0.92,0.53,2.65,2.29,-1.88,9.34
18787,-0.86,0.50,2.62,2.29,-1.87,9.33
18792,-0.85,0.48,2.60,2.29,-1.87,9.33
18798,-0.85,0.47,2.57,2.28,-1.87,9.32
18802,-0.85,0.45,2.53,2.27,-1.87,9.32
18807,-0.87,0.44,2.47,2.25,-1.86,9.31
18812,-0.97,0.41,2.29,2.21,-1.85,9.29
18817,-1.00,0.42,2.24,2.20,-1.85,9.29
18822,-1.09,0.45,2.13,2.18,-1.84,9.29
18827,-1.33,0.57,1.84,2.14,-1.83,9.27
18833,-1.51,0.66,1.66,2.13,-1.83,9.26
18837,-1.76,0.76,1.47,2.13,-1.83,9.26
18842,-1.83,0.78,1.48,2.13,-1.83,9.27
18847,-1.85,0.78,1.51,2.12,-1.83,9.28
18852,-2.01,0.85,1.79,2.11,-1.83,9.36
18857,-2.04,0.87,1.88,2.10,-1.83,9.37
18863,-2.10,0.93,2.05,2.10,-1.82,9.39
18867,-2.32,1.38,2.79,2.11,-1.83,9.42
18872,-2.36,1.51,2.97,2.11,-1.83,9.42
18877,-2.44,1.75,3.29,2.11,-1.84,9.41
18883,-2.56,2.18,3.92,2.09,-1.87,9.39
18887,-2.59,2.28,4.06,2.08,-1.87,9.39
18892,-2.66,2.45,4.30,2.06,-1.89,9.38
18898,-2.80,2.64,4.55,2.03,-1.90,9.37
18903,-2.87,2.72,4.61,2.02,-1.91,9.37
18907,-3.12,2.93,4.68,2.00,-1.91,9.36
18913,-3.43,3.15,4.68,1.98,-1.91,9.35
18917,-3.72,3.39,4.57,1.97,-1.90,9.34
18922,-4.03,3.64,4.36,1.97,-1.90,9.34
18927,-4.40,3.93,4.04,1.96,-1.88,9.34
18932,-4.46,3.98,4.00,1.95,-1.88,9.34
18937,-4.69,4.15,3.85,1.95,-1.88,9.34
18942,-5.43,4.78,3.54,1.91,-1.88,9.35
18947,-5.70,5.03,3.45,1.90,-1.89,9.36
18952,-5.89,5.20,3.39,1.89,-1.89,9.37
18957,-6.27,5.54,3.27,1.87,-1.90,9.40
18963,-6.35,5.60,3.25,1.87,-1.90,9.41
18968,-6.98,6.06,3.06,1.89,-1.91,9.41
18972,-7.02,6.09,3.05,1.90,-1.91,9.40
18978,-7.10,6.16,3.02,1.91,-1.91,9.38
18982,-7.16,6.23,2.99,1.92,-1.91,9.37
18988,-7.24,6.33,2.94,1.92,-1.91,9.35
18992,-7.31,6.43,2.87,1.93,-1.91,9.33
18997,-7.55,6.68,2.69,1.93,-1.92,9.29
19002,-9.10,7.80,1.99,1.83,-2.05,9.29
19007,-9.26,7.91,1.99,1.81,-2.08,9.30
19013,-9.33,7.95,2.01,1.80,-2.09,9.31
19017,-9.39,8.00,2.03,1.79,-2.10,9.32
19022,-9.47,8.04,2.06,1.78,-2.11,9.32
19027,-9.99,8.19,2.26,1.72,-2.14,9.36
19032,-10.52,8.38,2.52,1.67,-2.14,9.38
19037,-10.69,8.45,2.64,1.65,-2.14,9.39
19043,-10.78,8.50,2.71,1.65,-2.14,9.39
19048,-10.86,8.54,2.80,1.64,-2.13,9.39
19052,-10.90,8.56,2.85,1.63,-2.13,9.39
19057,-11.02,8.64,3.02,1.62,-2.13,9.39
19062,-11.50,8.83,3.66,1.59,-2.13,9.38
19068,-11.85,8.91,3.97,1.58,-2.13,9.37
19072,-12.47,9.03,4.40,1.57,-2.15,9.35
19077,-12.73,9.11,4.58,1.57,-2.16,9.35
19083,-13.09,9.29,4.76,1.57,-2.17,9.34
19087,-13.37,9.41,4.89,1.57,-2.18,9.34
19092,-13.53,9.47,4.98,1.57,-2.18,9.33
19098,-14.26,9.78,5.41,1.58,-2.20,9.32
19103,-15.78,10.70,6.36,1.61,-2.22,9.30
19107,-16.56,11.19,6.91,1.63,-2.23,9.28
19113,-17.68,11.93,7.76,1.66,-2.24,9.27
19118,-18.67,12.83,8.68,1.70,-2.24,9.26
19122,-20.09,15.14,10.37,1.79,-2.25,9.24
19127,-20.40,16.25,10.98,1.82,-2.25,9.23
19132,-20.48,16.64,11.20,1.83,-2.26,9.23
19137,-20.61,17.35,11.58,1.84,-2.26,9.23
19142,-20.65,17.53,11.67,1.85,-2.26,9.23
19148,-20.73,18.17,11.97,1.86,-2.26,9.23
19152,-20.84,19.19,12.50,1.88,-2.25,9.22
19157,-20.97,20.45,13.21,1.89,-2.25,9.22
19162,-21.14,23.36,14.92,1.90,-2.23,9.19
19168,-21.34,25.90,16.39,1.91,-2.23,9.15
19172,-22.10,31.50,19.50,1.89,-2.29,9.01
19178,-22.43,33.30,20.41,1.88,-2.34,8.98
19183,-22.80,34.98,21.20,1.86,-2.40,8.95
19187,-24.90,46.20,26.68,1.66,-2.58,9.09
